File: Data/Benzoic_Acid_DSC_Data.csv
Instrument name,DSC2A-00468
Operator,Yarger
Sample name,Benzoic_Acid
[step]
Ramp 5.00 °C/min to 150.00 °C
Time,Temperature,Heat Flow (Normalized)
min,°C,W/g
0.00,30.07,-0.007
0.02,30.07,-0.007
0.03,30.07,-0.007
0.05,30.08,-0.007
0.07,30.08,-0.007
0.08,30.10,-0.006
0.10,30.12,-0.004
0.12,30.15,0.001
0.13,30.20,0.010
0.15,30.25,0.021
0.17,30.30,0.032
0.18,30.36,0.039
0.20,30.43,0.046
0.22,30.49,0.051
0.23,30.56,0.055
0.25,30.64,0.058
0.27,30.71,0.059
0.28,30.78,0.061
0.30,30.86,0.062
0.32,30.94,0.064
0.33,31.02,0.064
0.35,31.09,0.065
0.37,31.17,0.066
0.38,31.25,0.067
0.40,31.33,0.067
0.42,31.41,0.068
0.43,31.50,0.069
0.45,31.58,0.069
0.47,31.66,0.070
0.48,31.74,0.070
0.50,31.82,0.071
0.52,31.90,0.071
0.53,31.99,0.072
0.55,32.07,0.072
0.57,32.15,0.073
0.58,32.23,0.073
0.60,32.32,0.073
0.62,32.40,0.074
0.63,32.48,0.074
0.65,32.56,0.074
0.67,32.65,0.074
0.68,32.73,0.074
0.70,32.81,0.075
0.72,32.89,0.075
0.73,32.98,0.075
0.75,33.06,0.075
0.77,33.14,0.075
0.78,33.23,0.075
0.80,33.31,0.075
0.82,33.39,0.075
0.83,33.47,0.075
0.85,33.56,0.075
0.87,33.64,0.076
0.88,33.72,0.076
0.90,33.81,0.076
0.92,33.89,0.076
0.93,33.97,0.075
0.95,34.06,0.075
0.97,34.14,0.075
0.98,34.22,0.076
1.00,34.30,0.075
1.02,34.39,0.075
1.03,34.47,0.075
1.05,34.55,0.075
1.07,34.64,0.075
1.08,34.72,0.075
1.10,34.80,0.075
1.12,34.89,0.075
1.13,34.97,0.075
1.15,35.05,0.075
1.17,35.14,0.075
1.18,35.22,0.075
1.20,35.30,0.075
1.22,35.39,0.075
1.23,35.47,0.075
1.25,35.55,0.075
1.27,35.64,0.075
1.28,35.72,0.074
1.30,35.80,0.074
1.32,35.89,0.074
1.33,35.97,0.074
1.35,36.05,0.074
1.37,36.13,0.074
1.38,36.22,0.074
1.40,36.30,0.074
1.42,36.38,0.074
1.43,36.47,0.074
1.45,36.55,0.074
1.47,36.64,0.074
1.48,36.72,0.074
1.50,36.80,0.074
1.52,36.89,0.074
1.53,36.97,0.074
1.55,37.05,0.073
1.57,37.14,0.073
1.58,37.22,0.073
1.60,37.30,0.073
1.62,37.39,0.073
1.63,37.47,0.073
1.65,37.55,0.073
1.67,37.64,0.073
1.68,37.72,0.073
1.70,37.80,0.073
1.72,37.89,0.073
1.73,37.97,0.073
1.75,38.05,0.073
1.77,38.13,0.073
1.78,38.22,0.073
1.80,38.30,0.073
1.82,38.39,0.073
1.83,38.47,0.073
1.85,38.55,0.073
1.87,38.64,0.073
1.88,38.72,0.073
1.90,38.80,0.073
1.92,38.88,0.073
1.93,38.97,0.073
1.95,39.05,0.073
1.97,39.14,0.072
1.98,39.22,0.072
2.00,39.30,0.072
2.02,39.38,0.072
2.03,39.47,0.072
2.05,39.55,0.072
2.07,39.64,0.072
2.08,39.72,0.072
2.10,39.80,0.072
2.12,39.89,0.072
2.13,39.97,0.072
2.15,40.05,0.072
2.17,40.14,0.072
2.18,40.22,0.072
2.20,40.30,0.072
2.22,40.39,0.072
2.23,40.47,0.072
2.25,40.55,0.072
2.27,40.64,0.072
2.28,40.72,0.072
2.30,40.80,0.072
2.32,40.89,0.072
2.33,40.97,0.072
2.35,41.05,0.072
2.37,41.14,0.072
2.38,41.22,0.072
2.40,41.30,0.072
2.42,41.39,0.072
2.43,41.47,0.072
2.45,41.55,0.072
2.47,41.64,0.072
2.48,41.72,0.072
2.50,41.80,0.072
2.52,41.89,0.072
2.53,41.97,0.071
2.55,42.05,0.071
2.57,42.14,0.071
2.58,42.22,0.072
2.60,42.30,0.071
2.62,42.39,0.071
2.63,42.47,0.071
2.65,42.55,0.071
2.67,42.64,0.071
2.68,42.72,0.071
2.70,42.80,0.071
2.72,42.89,0.071
2.73,42.97,0.071
2.75,43.05,0.071
2.77,43.14,0.071
2.78,43.22,0.071
2.80,43.30,0.071
2.82,43.39,0.071
2.83,43.47,0.071
2.85,43.55,0.071
2.87,43.64,0.071
2.88,43.72,0.071
2.90,43.80,0.071
2.92,43.89,0.071
2.93,43.97,0.071
2.95,44.05,0.071
2.97,44.14,0.071
2.98,44.22,0.071
3.00,44.30,0.071
3.02,44.39,0.071
3.03,44.47,0.071
3.05,44.55,0.071
3.07,44.64,0.071
3.08,44.72,0.071
3.10,44.80,0.071
3.12,44.89,0.071
3.13,44.97,0.071
3.15,45.05,0.071
3.17,45.14,0.071
3.18,45.22,0.071
3.20,45.30,0.071
3.22,45.39,0.071
3.23,45.47,0.071
3.25,45.55,0.071
3.27,45.64,0.071
3.28,45.72,0.071
3.30,45.80,0.071
3.32,45.89,0.071
3.33,45.97,0.071
3.35,46.05,0.071
3.37,46.14,0.071
3.38,46.22,0.071
3.40,46.30,0.071
3.42,46.39,0.071
3.43,46.47,0.071
3.45,46.55,0.071
3.47,46.64,0.071
3.48,46.72,0.071
3.50,46.81,0.071
3.52,46.89,0.071
3.53,46.97,0.071
3.55,47.06,0.071
3.57,47.14,0.071
3.58,47.22,0.071
3.60,47.31,0.071
3.62,47.39,0.071
3.63,47.47,0.071
3.65,47.55,0.071
3.67,47.64,0.071
3.68,47.72,0.071
3.70,47.81,0.071
3.72,47.89,0.071
3.73,47.97,0.071
3.75,48.06,0.071
3.77,48.14,0.071
3.78,48.22,0.071
3.80,48.31,0.071
3.82,48.39,0.071
3.83,48.47,0.071
3.85,48.56,0.071
3.87,48.64,0.071
3.88,48.72,0.071
3.90,48.81,0.071
3.92,48.89,0.071
3.93,48.97,0.071
3.95,49.06,0.071
3.97,49.14,0.071
3.98,49.22,0.071
4.00,49.31,0.071
4.02,49.39,0.071
4.03,49.47,0.071
4.05,49.56,0.071
4.07,49.64,0.071
4.08,49.72,0.071
4.10,49.81,0.071
4.12,49.89,0.071
4.13,49.97,0.071
4.15,50.06,0.071
4.17,50.14,0.071
4.18,50.23,0.071
4.20,50.31,0.071
4.22,50.39,0.071
4.23,50.47,0.071
4.25,50.56,0.071
4.27,50.64,0.071
4.28,50.72,0.071
4.30,50.81,0.071
4.32,50.89,0.071
4.33,50.97,0.071
4.35,51.06,0.071
4.37,51.14,0.071
4.38,51.22,0.071
4.40,51.31,0.071
4.42,51.39,0.071
4.43,51.47,0.071
4.45,51.56,0.071
4.47,51.64,0.071
4.48,51.72,0.071
4.50,51.81,0.071
4.52,51.89,0.071
4.53,51.97,0.071
4.55,52.06,0.071
4.57,52.14,0.071
4.58,52.22,0.071
4.60,52.31,0.071
4.62,52.39,0.071
4.63,52.47,0.071
4.65,52.56,0.071
4.67,52.64,0.071
4.68,52.72,0.071
4.70,52.81,0.071
4.72,52.89,0.071
4.73,52.97,0.071
4.75,53.06,0.071
4.77,53.14,0.071
4.78,53.22,0.071
4.80,53.31,0.071
4.82,53.39,0.071
4.83,53.48,0.071
4.85,53.56,0.071
4.87,53.64,0.071
4.88,53.73,0.071
4.90,53.81,0.071
4.92,53.89,0.071
4.93,53.98,0.071
4.95,54.06,0.071
4.97,54.14,0.071
4.98,54.23,0.071
5.00,54.31,0.071
5.02,54.39,0.071
5.03,54.48,0.071
5.05,54.56,0.071
5.07,54.64,0.071
5.08,54.73,0.071
5.10,54.81,0.071
5.12,54.89,0.071
5.13,54.98,0.071
5.15,55.06,0.071
5.17,55.14,0.071
5.18,55.23,0.071
5.20,55.31,0.071
5.22,55.39,0.071
5.23,55.48,0.071
5.25,55.56,0.071
5.27,55.64,0.071
5.28,55.73,0.071
5.30,55.81,0.071
5.32,55.89,0.071
5.33,55.98,0.071
5.35,56.06,0.071
5.37,56.14,0.071
5.38,56.23,0.071
5.40,56.31,0.071
5.42,56.39,0.071
5.43,56.48,0.071
5.45,56.56,0.071
5.47,56.64,0.071
5.48,56.73,0.071
5.50,56.81,0.071
5.52,56.89,0.071
5.53,56.98,0.071
5.55,57.06,0.071
5.57,57.14,0.071
5.58,57.23,0.071
5.60,57.31,0.071
5.62,57.39,0.071
5.63,57.48,0.071
5.65,57.56,0.071
5.67,57.64,0.072
5.68,57.73,0.071
5.70,57.81,0.071
5.72,57.89,0.072
5.73,57.98,0.071
5.75,58.06,0.072
5.77,58.14,0.072
5.78,58.23,0.071
5.80,58.31,0.071
5.82,58.39,0.071
5.83,58.48,0.072
5.85,58.56,0.072
5.87,58.64,0.072
5.88,58.73,0.072
5.90,58.81,0.072
5.92,58.89,0.072
5.93,58.98,0.072
5.95,59.06,0.072
5.97,59.14,0.072
5.98,59.23,0.072
6.00,59.31,0.072
6.02,59.39,0.072
6.03,59.48,0.072
6.05,59.56,0.072
6.07,59.64,0.072
6.08,59.73,0.072
6.10,59.81,0.072
6.12,59.89,0.072
6.13,59.98,0.072
6.15,60.06,0.072
6.17,60.14,0.072
6.18,60.23,0.072
6.20,60.31,0.072
6.22,60.39,0.072
6.23,60.48,0.072
6.25,60.56,0.072
6.27,60.64,0.072
6.28,60.73,0.072
6.30,60.81,0.072
6.32,60.90,0.072
6.33,60.98,0.072
6.35,61.06,0.072
6.37,61.15,0.072
6.38,61.23,0.072
6.40,61.31,0.072
6.42,61.39,0.072
6.43,61.48,0.072
6.45,61.56,0.072
6.47,61.65,0.072
6.48,61.73,0.072
6.50,61.81,0.072
6.52,61.90,0.072
6.53,61.98,0.072
6.55,62.06,0.072
6.57,62.15,0.072
6.58,62.23,0.072
6.60,62.31,0.072
6.62,62.40,0.072
6.63,62.48,0.072
6.65,62.56,0.072
6.67,62.65,0.072
6.68,62.73,0.072
6.70,62.81,0.072
6.72,62.89,0.072
6.73,62.98,0.072
6.75,63.06,0.072
6.77,63.14,0.072
6.78,63.23,0.072
6.80,63.31,0.072
6.82,63.39,0.072
6.83,63.48,0.072
6.85,63.56,0.072
6.87,63.64,0.072
6.88,63.73,0.072
6.90,63.81,0.072
6.92,63.90,0.072
6.93,63.98,0.072
6.95,64.06,0.072
6.97,64.15,0.072
6.98,64.23,0.072
7.00,64.31,0.072
7.02,64.40,0.072
7.03,64.48,0.072
7.05,64.56,0.072
7.07,64.64,0.072
7.08,64.73,0.072
7.10,64.81,0.072
7.12,64.90,0.072
7.13,64.98,0.072
7.15,65.06,0.072
7.17,65.15,0.072
7.18,65.23,0.072
7.20,65.31,0.072
7.22,65.40,0.072
7.23,65.48,0.072
7.25,65.56,0.072
7.27,65.65,0.072
7.28,65.73,0.072
7.30,65.81,0.072
7.32,65.90,0.072
7.33,65.98,0.072
7.35,66.06,0.072
7.37,66.15,0.072
7.38,66.23,0.072
7.40,66.31,0.072
7.42,66.40,0.072
7.43,66.48,0.072
7.45,66.56,0.072
7.47,66.65,0.072
7.48,66.73,0.072
7.50,66.81,0.072
7.52,66.90,0.072
7.53,66.98,0.072
7.55,67.06,0.072
7.57,67.15,0.072
7.58,67.23,0.072
7.60,67.31,0.072
7.62,67.40,0.072
7.63,67.48,0.072
7.65,67.56,0.072
7.67,67.65,0.072
7.68,67.73,0.072
7.70,67.81,0.072
7.72,67.90,0.072
7.73,67.98,0.072
7.75,68.07,0.072
7.77,68.15,0.072
7.78,68.23,0.072
7.80,68.32,0.072
7.82,68.40,0.072
7.83,68.48,0.072
7.85,68.56,0.072
7.87,68.65,0.072
7.88,68.73,0.072
7.90,68.82,0.072
7.92,68.90,0.072
7.93,68.98,0.072
7.95,69.06,0.072
7.97,69.15,0.072
7.98,69.23,0.072
8.00,69.32,0.072
8.02,69.40,0.073
8.03,69.48,0.073
8.05,69.57,0.073
8.07,69.65,0.073
8.08,69.73,0.073
8.10,69.82,0.073
8.12,69.90,0.073
8.13,69.98,0.073
8.15,70.07,0.073
8.17,70.15,0.073
8.18,70.23,0.073
8.20,70.32,0.073
8.22,70.40,0.073
8.23,70.48,0.073
8.25,70.57,0.073
8.27,70.65,0.073
8.28,70.73,0.073
8.30,70.82,0.073
8.32,70.90,0.073
8.33,70.98,0.073
8.35,71.07,0.073
8.37,71.15,0.073
8.38,71.23,0.073
8.40,71.32,0.073
8.42,71.40,0.073
8.43,71.48,0.073
8.45,71.57,0.073
8.47,71.65,0.073
8.48,71.73,0.073
8.50,71.82,0.073
8.52,71.90,0.073
8.53,71.98,0.073
8.55,72.07,0.073
8.57,72.15,0.073
8.58,72.23,0.073
8.60,72.32,0.073
8.62,72.40,0.073
8.63,72.48,0.073
8.65,72.57,0.073
8.67,72.65,0.073
8.68,72.73,0.073
8.70,72.82,0.073
8.72,72.90,0.073
8.73,72.98,0.073
8.75,73.07,0.073
8.77,73.15,0.073
8.78,73.23,0.073
8.80,73.32,0.073
8.82,73.40,0.073
8.83,73.48,0.073
8.85,73.57,0.073
8.87,73.65,0.073
8.88,73.73,0.073
8.90,73.82,0.073
8.92,73.90,0.073
8.93,73.98,0.073
8.95,74.07,0.073
8.97,74.15,0.073
8.98,74.23,0.073
9.00,74.32,0.073
9.02,74.40,0.073
9.03,74.48,0.073
9.05,74.57,0.073
9.07,74.65,0.073
9.08,74.73,0.073
9.10,74.82,0.073
9.12,74.90,0.073
9.13,74.98,0.073
9.15,75.07,0.073
9.17,75.15,0.073
9.18,75.24,0.073
9.20,75.32,0.073
9.22,75.40,0.073
9.23,75.48,0.073
9.25,75.57,0.073
9.27,75.65,0.073
9.28,75.73,0.073
9.30,75.82,0.073
9.32,75.90,0.073
9.33,75.98,0.073
9.35,76.07,0.073
9.37,76.15,0.073
9.38,76.23,0.073
9.40,76.32,0.073
9.42,76.40,0.073
9.43,76.49,0.073
9.45,76.57,0.073
9.47,76.65,0.073
9.48,76.73,0.073
9.50,76.82,0.073
9.52,76.90,0.073
9.53,76.99,0.073
9.55,77.07,0.073
9.57,77.15,0.073
9.58,77.24,0.073
9.60,77.32,0.073
9.62,77.40,0.073
9.63,77.49,0.073
9.65,77.57,0.073
9.67,77.65,0.073
9.68,77.74,0.073
9.70,77.82,0.073
9.72,77.90,0.073
9.73,77.99,0.073
9.75,78.07,0.073
9.77,78.15,0.073
9.78,78.24,0.073
9.80,78.32,0.073
9.82,78.40,0.073
9.83,78.49,0.073
9.85,78.57,0.073
9.87,78.65,0.073
9.88,78.74,0.073
9.90,78.82,0.073
9.92,78.91,0.073
9.93,78.99,0.073
9.95,79.07,0.073
9.97,79.16,0.073
9.98,79.24,0.073
10.00,79.32,0.073
10.02,79.41,0.073
10.03,79.49,0.073
10.05,79.57,0.073
10.07,79.66,0.073
10.08,79.74,0.073
10.10,79.82,0.073
10.12,79.90,0.073
10.13,79.99,0.073
10.15,80.07,0.073
10.17,80.15,0.073
10.18,80.24,0.073
10.20,80.32,0.073
10.22,80.40,0.073
10.23,80.49,0.073
10.25,80.57,0.073
10.27,80.65,0.073
10.28,80.74,0.073
10.30,80.82,0.073
10.32,80.91,0.073
10.33,80.99,0.073
10.35,81.07,0.073
10.37,81.15,0.074
10.38,81.24,0.074
10.40,81.32,0.074
10.42,81.40,0.074
10.43,81.49,0.074
10.45,81.57,0.074
10.47,81.65,0.074
10.48,81.74,0.074
10.50,81.82,0.074
10.52,81.91,0.074
10.53,81.99,0.073
10.55,82.07,0.074
10.57,82.16,0.074
10.58,82.24,0.074
10.60,82.32,0.074
10.62,82.41,0.074
10.63,82.49,0.074
10.65,82.57,0.074
10.67,82.66,0.074
10.68,82.74,0.074
10.70,82.82,0.074
10.72,82.91,0.074
10.73,82.99,0.074
10.75,83.07,0.074
10.77,83.16,0.074
10.78,83.24,0.074
10.80,83.32,0.074
10.82,83.41,0.074
10.83,83.49,0.074
10.85,83.57,0.074
10.87,83.66,0.074
10.88,83.74,0.074
10.90,83.82,0.074
10.92,83.91,0.074
10.93,83.99,0.074
10.95,84.07,0.074
10.97,84.16,0.074
10.98,84.24,0.074
11.00,84.32,0.074
11.02,84.41,0.074
11.03,84.49,0.074
11.05,84.57,0.074
11.07,84.66,0.074
11.08,84.74,0.074
11.10,84.82,0.074
11.12,84.91,0.074
11.13,84.99,0.074
11.15,85.07,0.074
11.17,85.16,0.074
11.18,85.24,0.074
11.20,85.32,0.074
11.22,85.41,0.074
11.23,85.49,0.074
11.25,85.57,0.074
11.27,85.65,0.074
11.28,85.74,0.074
11.30,85.82,0.074
11.32,85.91,0.074
11.33,85.99,0.074
11.35,86.07,0.074
11.37,86.16,0.074
11.38,86.24,0.074
11.40,86.32,0.074
11.42,86.41,0.074
11.43,86.49,0.074
11.45,86.57,0.074
11.47,86.66,0.074
11.48,86.74,0.074
11.50,86.82,0.074
11.52,86.91,0.074
11.53,86.99,0.074
11.55,87.07,0.074
11.57,87.16,0.074
11.58,87.24,0.074
11.60,87.32,0.074
11.62,87.41,0.074
11.63,87.49,0.074
11.65,87.57,0.074
11.67,87.66,0.074
11.68,87.74,0.074
11.70,87.82,0.074
11.72,87.91,0.074
11.73,87.99,0.074
11.75,88.07,0.074
11.77,88.16,0.074
11.78,88.24,0.074
11.80,88.32,0.075
11.82,88.41,0.075
11.83,88.49,0.074
11.85,88.57,0.074
11.87,88.66,0.074
11.88,88.74,0.075
11.90,88.82,0.075
11.92,88.91,0.075
11.93,88.99,0.075
11.95,89.07,0.075
11.97,89.16,0.075
11.98,89.24,0.075
12.00,89.32,0.075
12.02,89.41,0.075
12.03,89.49,0.075
12.05,89.57,0.075
12.07,89.66,0.075
12.08,89.74,0.075
12.10,89.82,0.075
12.12,89.91,0.075
12.13,89.99,0.075
12.15,90.07,0.075
12.17,90.16,0.075
12.18,90.24,0.075
12.20,90.33,0.075
12.22,90.41,0.075
12.23,90.49,0.075
12.25,90.57,0.075
12.27,90.66,0.075
12.28,90.74,0.075
12.30,90.82,0.075
12.32,90.91,0.075
12.33,90.99,0.075
12.35,91.08,0.075
12.37,91.16,0.075
12.38,91.24,0.075
12.40,91.32,0.075
12.42,91.41,0.075
12.43,91.49,0.075
12.45,91.57,0.075
12.47,91.66,0.075
12.48,91.74,0.075
12.50,91.82,0.075
12.52,91.91,0.075
12.53,91.99,0.075
12.55,92.08,0.075
12.57,92.16,0.075
12.58,92.24,0.075
12.60,92.33,0.075
12.62,92.41,0.075
12.63,92.49,0.075
12.65,92.58,0.075
12.67,92.66,0.075
12.68,92.74,0.075
12.70,92.83,0.075
12.72,92.91,0.075
12.73,92.99,0.075
12.75,93.08,0.075
12.77,93.16,0.075
12.78,93.24,0.075
12.80,93.33,0.075
12.82,93.41,0.075
12.83,93.49,0.075
12.85,93.58,0.075
12.87,93.66,0.075
12.88,93.74,0.075
12.90,93.83,0.075
12.92,93.91,0.075
12.93,93.99,0.075
12.95,94.08,0.075
12.97,94.16,0.075
12.98,94.24,0.075
13.00,94.33,0.075
13.02,94.41,0.075
13.03,94.49,0.075
13.05,94.58,0.075
13.07,94.66,0.075
13.08,94.74,0.075
13.10,94.83,0.075
13.12,94.91,0.075
13.13,94.99,0.075
13.15,95.08,0.075
13.17,95.16,0.075
13.18,95.24,0.075
13.20,95.33,0.075
13.22,95.41,0.075
13.23,95.49,0.075
13.25,95.58,0.075
13.27,95.66,0.075
13.28,95.74,0.075
13.30,95.83,0.075
13.32,95.91,0.075
13.33,95.99,0.075
13.35,96.08,0.075
13.37,96.16,0.075
13.38,96.24,0.075
13.40,96.33,0.075
13.42,96.41,0.075
13.43,96.49,0.075
13.45,96.58,0.075
13.47,96.66,0.075
13.48,96.74,0.075
13.50,96.83,0.075
13.52,96.91,0.075
13.53,96.99,0.075
13.55,97.08,0.075
13.57,97.16,0.075
13.58,97.24,0.075
13.60,97.33,0.075
13.62,97.41,0.076
13.63,97.50,0.075
13.65,97.58,0.075
13.67,97.66,0.076
13.68,97.75,0.075
13.70,97.83,0.075
13.72,97.91,0.075
13.73,97.99,0.075
13.75,98.08,0.075
13.77,98.16,0.075
13.78,98.25,0.075
13.80,98.33,0.075
13.82,98.41,0.075
13.83,98.49,0.075
13.85,98.58,0.075
13.87,98.66,0.075
13.88,98.74,0.075
13.90,98.83,0.075
13.92,98.91,0.075
13.93,98.99,0.075
13.95,99.08,0.075
13.97,99.16,0.075
13.98,99.24,0.075
14.00,99.33,0.075
14.02,99.41,0.075
14.03,99.49,0.075
14.05,99.58,0.075
14.07,99.66,0.076
14.08,99.74,0.075
14.10,99.83,0.075
14.12,99.91,0.075
14.13,99.99,0.075
14.15,100.08,0.075
14.17,100.16,0.075
14.18,100.25,0.075
14.20,100.33,0.075
14.22,100.41,0.075
14.23,100.50,0.075
14.25,100.58,0.076
14.27,100.66,0.076
14.28,100.75,0.076
14.30,100.83,0.076
14.32,100.91,0.076
14.33,101.00,0.076
14.35,101.08,0.076
14.37,101.16,0.076
14.38,101.25,0.076
14.40,101.33,0.076
14.42,101.41,0.076
14.43,101.50,0.076
14.45,101.58,0.076
14.47,101.66,0.076
14.48,101.75,0.076
14.50,101.83,0.076
14.52,101.91,0.076
14.53,102.00,0.076
14.55,102.08,0.076
14.57,102.16,0.076
14.58,102.25,0.076
14.60,102.33,0.076
14.62,102.41,0.076
14.63,102.50,0.076
14.65,102.58,0.076
14.67,102.66,0.076
14.68,102.75,0.076
14.70,102.83,0.076
14.72,102.91,0.076
14.73,103.00,0.076
14.75,103.08,0.076
14.77,103.16,0.076
14.78,103.25,0.076
14.80,103.33,0.076
14.82,103.41,0.076
14.83,103.50,0.076
14.85,103.58,0.076
14.87,103.66,0.076
14.88,103.75,0.076
14.90,103.83,0.076
14.92,103.91,0.076
14.93,104.00,0.076
14.95,104.08,0.077
14.97,104.16,0.076
14.98,104.25,0.076
15.00,104.33,0.076
15.02,104.41,0.077
15.03,104.50,0.076
15.05,104.58,0.076
15.07,104.66,0.077
15.08,104.75,0.077
15.10,104.83,0.077
15.12,104.91,0.077
15.13,105.00,0.077
15.15,105.08,0.077
15.17,105.16,0.077
15.18,105.25,0.077
15.20,105.33,0.077
15.22,105.41,0.077
15.23,105.50,0.077
15.25,105.58,0.077
15.27,105.66,0.077
15.28,105.75,0.077
15.30,105.83,0.077
15.32,105.91,0.077
15.33,106.00,0.077
15.35,106.08,0.077
15.37,106.16,0.077
15.38,106.25,0.077
15.40,106.33,0.077
15.42,106.41,0.077
15.43,106.50,0.077
15.45,106.58,0.077
15.47,106.66,0.077
15.48,106.75,0.077
15.50,106.83,0.077
15.52,106.92,0.077
15.53,107.00,0.077
15.55,107.08,0.077
15.57,107.17,0.077
15.58,107.25,0.077
15.60,107.33,0.077
15.62,107.41,0.077
15.63,107.50,0.077
15.65,107.58,0.077
15.67,107.66,0.077
15.68,107.75,0.077
15.70,107.83,0.077
15.72,107.91,0.077
15.73,108.00,0.077
15.75,108.08,0.077
15.77,108.16,0.077
15.78,108.25,0.077
15.80,108.33,0.077
15.82,108.41,0.077
15.83,108.50,0.077
15.85,108.58,0.077
15.87,108.67,0.077
15.88,108.75,0.077
15.90,108.83,0.077
15.92,108.92,0.077
15.93,109.00,0.077
15.95,109.08,0.077
15.97,109.17,0.077
15.98,109.25,0.077
16.00,109.33,0.077
16.02,109.42,0.077
16.03,109.50,0.077
16.05,109.58,0.077
16.07,109.67,0.077
16.08,109.75,0.077
16.10,109.83,0.077
16.12,109.92,0.077
16.13,110.00,0.077
16.15,110.08,0.077
16.17,110.17,0.077
16.18,110.25,0.077
16.20,110.33,0.077
16.22,110.42,0.078
16.23,110.50,0.078
16.25,110.58,0.078
16.27,110.67,0.078
16.28,110.75,0.078
16.30,110.83,0.078
16.32,110.92,0.078
16.33,111.00,0.078
16.35,111.08,0.078
16.37,111.17,0.078
16.38,111.25,0.078
16.40,111.33,0.078
16.42,111.42,0.078
16.43,111.50,0.078
16.45,111.58,0.078
16.47,111.67,0.078
16.48,111.75,0.078
16.50,111.84,0.078
16.52,111.92,0.078
16.53,112.00,0.078
16.55,112.08,0.078
16.57,112.17,0.078
16.58,112.25,0.078
16.60,112.33,0.078
16.62,112.42,0.078
16.63,112.50,0.078
16.65,112.58,0.078
16.67,112.67,0.078
16.68,112.75,0.078
16.70,112.83,0.078
16.72,112.92,0.078
16.73,113.00,0.078
16.75,113.08,0.078
16.77,113.17,0.078
16.78,113.25,0.078
16.80,113.33,0.078
16.82,113.42,0.079
16.83,113.50,0.079
16.85,113.58,0.079
16.87,113.67,0.079
16.88,113.75,0.079
16.90,113.83,0.079
16.92,113.92,0.079
16.93,114.00,0.079
16.95,114.08,0.079
16.97,114.17,0.079
16.98,114.25,0.079
17.00,114.34,0.079
17.02,114.42,0.080
17.03,114.50,0.080
17.05,114.59,0.080
17.07,114.67,0.080
17.08,114.75,0.080
17.10,114.83,0.080
17.12,114.92,0.080
17.13,115.00,0.080
17.15,115.09,0.080
17.17,115.17,0.080
17.18,115.25,0.080
17.20,115.33,0.080
17.22,115.42,0.081
17.23,115.50,0.081
17.25,115.59,0.081
17.27,115.67,0.081
17.28,115.75,0.081
17.30,115.83,0.081
17.32,115.92,0.081
17.33,116.00,0.081
17.35,116.08,0.081
17.37,116.17,0.082
17.38,116.25,0.082
17.40,116.33,0.082
17.42,116.42,0.082
17.43,116.50,0.082
17.45,116.58,0.082
17.47,116.67,0.083
17.48,116.75,0.083
17.50,116.83,0.083
17.52,116.92,0.083
17.53,117.00,0.083
17.55,117.08,0.084
17.57,117.17,0.084
17.58,117.25,0.084
17.60,117.33,0.084
17.62,117.42,0.085
17.63,117.50,0.085
17.65,117.58,0.085
17.67,117.67,0.086
17.68,117.75,0.086
17.70,117.83,0.086
17.72,117.92,0.087
17.73,118.00,0.087
17.75,118.08,0.087
17.77,118.17,0.088
17.78,118.25,0.088
17.80,118.33,0.088
17.82,118.42,0.089
17.83,118.50,0.090
17.85,118.58,0.090
17.87,118.67,0.091
17.88,118.75,0.091
17.90,118.83,0.092
17.92,118.91,0.093
17.93,119.00,0.094
17.95,119.08,0.095
17.97,119.16,0.096
17.98,119.25,0.097
18.00,119.33,0.098
18.02,119.41,0.099
18.03,119.50,0.104
18.05,119.58,0.106
18.07,119.66,0.109
18.08,119.75,0.112
18.10,119.83,0.116
18.12,119.91,0.124
18.13,119.99,0.130
18.15,120.08,0.139
18.17,120.16,0.148
18.18,120.24,0.159
18.20,120.32,0.172
18.22,120.41,0.187
18.23,120.49,0.201
18.25,120.57,0.218
18.27,120.65,0.240
18.28,120.73,0.270
18.30,120.81,0.297
18.32,120.89,0.342
18.33,120.97,0.391
18.35,121.05,0.454
18.37,121.13,0.531
18.38,121.20,0.638
18.40,121.27,0.771
18.42,121.34,0.935
18.43,121.41,1.134
18.45,121.47,1.360
18.47,121.53,1.604
18.48,121.59,1.902
18.50,121.64,2.239
18.52,121.69,2.602
18.53,121.73,2.987
18.55,121.77,3.399
18.57,121.80,3.810
18.58,121.84,4.175
18.60,121.87,4.525
18.62,121.90,4.840
18.63,121.94,5.177
18.65,121.98,5.476
18.67,122.02,5.604
18.68,122.07,5.700
18.70,122.13,5.746
18.72,122.19,5.842
18.73,122.25,5.850
18.75,122.32,5.918
18.77,122.39,5.965
18.78,122.47,5.977
18.80,122.54,5.925
18.82,122.63,5.823
18.83,122.71,5.712
18.85,122.80,5.602
18.87,122.90,5.596
18.88,122.98,5.758
18.90,123.07,4.963
18.92,123.22,3.308
18.93,123.41,1.972
18.95,123.60,1.434
18.97,123.77,1.174
18.98,123.93,0.973
19.00,124.07,0.811
19.02,124.20,0.684
19.03,124.33,0.576
19.05,124.44,0.496
19.07,124.55,0.422
19.08,124.66,0.366
19.10,124.76,0.320
19.12,124.85,0.283
19.13,124.95,0.252
19.15,125.04,0.227
19.17,125.13,0.205
19.18,125.22,0.188
19.20,125.31,0.175
19.22,125.40,0.166
19.23,125.48,0.159
19.25,125.57,0.152
19.27,125.66,0.145
19.28,125.74,0.139
19.30,125.83,0.138
19.32,125.91,0.136
19.33,126.00,0.134
19.35,126.08,0.132
19.37,126.16,0.131
19.38,126.25,0.130
19.40,126.33,0.129
19.42,126.42,0.129
19.43,126.50,0.128
19.45,126.58,0.128
19.47,126.67,0.127
19.48,126.75,0.126
19.50,126.83,0.126
19.52,126.92,0.125
19.53,127.00,0.125
19.55,127.08,0.125
19.57,127.17,0.124
19.58,127.25,0.124
19.60,127.33,0.123
19.62,127.42,0.123
19.63,127.50,0.123
19.65,127.58,0.122
19.67,127.67,0.122
19.68,127.75,0.122
19.70,127.83,0.121
19.72,127.92,0.121
19.73,128.00,0.121
19.75,128.08,0.121
19.77,128.17,0.121
19.78,128.25,0.120
19.80,128.33,0.120
19.82,128.42,0.120
19.83,128.50,0.120
19.85,128.58,0.120
19.87,128.67,0.120
19.88,128.75,0.120
19.90,128.83,0.120
19.92,128.92,0.120
19.93,129.00,0.119
19.95,129.08,0.119
19.97,129.17,0.119
19.98,129.25,0.119
20.00,129.33,0.119
20.02,129.42,0.119
20.03,129.50,0.119
20.05,129.58,0.119
20.07,129.67,0.119
20.08,129.75,0.119
20.10,129.83,0.119
20.12,129.92,0.119
20.13,130.00,0.119
20.15,130.08,0.119
20.17,130.17,0.119
20.18,130.25,0.119
20.20,130.33,0.119
20.22,130.42,0.119
20.23,130.50,0.119
20.25,130.58,0.119
20.27,130.67,0.119
20.28,130.75,0.119
20.30,130.83,0.119
20.32,130.91,0.119
20.33,131.00,0.119
20.35,131.08,0.119
20.37,131.17,0.119
20.38,131.25,0.119
20.40,131.33,0.119
20.42,131.42,0.119
20.43,131.50,0.119
20.45,131.58,0.119
20.47,131.66,0.119
20.48,131.75,0.119
20.50,131.83,0.119
20.52,131.92,0.119
20.53,132.00,0.119
20.55,132.08,0.119
20.57,132.17,0.119
20.58,132.25,0.119
20.60,132.33,0.119
20.62,132.42,0.119
20.63,132.50,0.119
20.65,132.58,0.119
20.67,132.67,0.119
20.68,132.75,0.119
20.70,132.83,0.119
20.72,132.92,0.119
20.73,133.00,0.119
20.75,133.08,0.119
20.77,133.17,0.119
20.78,133.25,0.119
20.80,133.33,0.119
20.82,133.42,0.119
20.83,133.50,0.119
20.85,133.58,0.119
20.87,133.67,0.119
20.88,133.75,0.119
20.90,133.83,0.119
20.92,133.92,0.119
20.93,134.00,0.119
20.95,134.08,0.119
20.97,134.17,0.119
20.98,134.25,0.119
21.00,134.33,0.119
21.02,134.42,0.119
21.03,134.50,0.119
21.05,134.59,0.119
21.07,134.67,0.119
21.08,134.75,0.119
21.10,134.83,0.119
21.12,134.92,0.119
21.13,135.00,0.119
21.15,135.08,0.119
21.17,135.17,0.119
21.18,135.25,0.119
21.20,135.33,0.119
21.22,135.42,0.119
21.23,135.50,0.119
21.25,135.58,0.119
21.27,135.67,0.119
21.28,135.75,0.119
21.30,135.83,0.119
21.32,135.92,0.119
21.33,136.00,0.119
21.35,136.08,0.119
21.37,136.17,0.119
21.38,136.25,0.119
21.40,136.33,0.119
21.42,136.42,0.119
21.43,136.50,0.119
21.45,136.58,0.119
21.47,136.67,0.119
21.48,136.75,0.119
21.50,136.83,0.119
21.52,136.92,0.119
21.53,137.00,0.119
21.55,137.09,0.119
21.57,137.17,0.119
21.58,137.25,0.119
21.60,137.33,0.119
21.62,137.42,0.119
21.63,137.50,0.119
21.65,137.59,0.119
21.67,137.67,0.120
21.68,137.75,0.120
21.70,137.83,0.119
21.72,137.92,0.120
21.73,138.00,0.120
21.75,138.09,0.120
21.77,138.17,0.120
21.78,138.25,0.120
21.80,138.33,0.120
21.82,138.42,0.120
21.83,138.50,0.120
21.85,138.59,0.120
21.87,138.67,0.120
21.88,138.75,0.120
21.90,138.83,0.120
21.92,138.92,0.120
21.93,139.00,0.120
21.95,139.08,0.120
21.97,139.17,0.120
21.98,139.25,0.120
22.00,139.33,0.120
22.02,139.42,0.120
22.03,139.50,0.120
22.05,139.58,0.120
22.07,139.67,0.120
22.08,139.75,0.120
22.10,139.84,0.120
22.12,139.92,0.120
22.13,140.00,0.120
22.15,140.08,0.120
22.17,140.17,0.120
22.18,140.25,0.120
22.20,140.33,0.120
22.22,140.42,0.120
22.23,140.50,0.120
22.25,140.59,0.120
22.27,140.67,0.120
22.28,140.75,0.120
22.30,140.84,0.120
22.32,140.92,0.120
22.33,141.00,0.120
22.35,141.09,0.120
22.37,141.17,0.120
22.38,141.25,0.120
22.40,141.34,0.120
22.42,141.42,0.120
22.43,141.50,0.120
22.45,141.59,0.120
22.47,141.67,0.120
22.48,141.75,0.120
22.50,141.84,0.120
22.52,141.92,0.120
22.53,142.00,0.120
22.55,142.09,0.120
22.57,142.17,0.121
22.58,142.25,0.121
22.60,142.34,0.120
22.62,142.42,0.121
22.63,142.50,0.121
22.65,142.59,0.121
22.67,142.67,0.121
22.68,142.75,0.120
22.70,142.84,0.121
22.72,142.92,0.120
22.73,143.00,0.121
22.75,143.09,0.121
22.77,143.17,0.121
22.78,143.25,0.121
22.80,143.34,0.121
22.82,143.42,0.121
22.83,143.50,0.121
22.85,143.59,0.121
22.87,143.67,0.121
22.88,143.75,0.121
22.90,143.84,0.121
22.92,143.92,0.121
22.93,144.00,0.121
22.95,144.09,0.121
22.97,144.17,0.121
22.98,144.25,0.121
23.00,144.34,0.121
23.02,144.42,0.121
23.03,144.50,0.121
23.05,144.59,0.121
23.07,144.67,0.121
23.08,144.75,0.121
23.10,144.84,0.121
23.12,144.92,0.121
23.13,145.00,0.121
23.15,145.09,0.121
23.17,145.17,0.121
23.18,145.25,0.121
23.20,145.34,0.121
23.22,145.42,0.121
23.23,145.50,0.121
23.25,145.59,0.121
23.27,145.67,0.121
23.28,145.75,0.121
23.30,145.84,0.121
23.32,145.92,0.121
23.33,146.00,0.121
23.35,146.09,0.121
23.37,146.17,0.121
23.38,146.25,0.121
23.40,146.34,0.121
23.42,146.42,0.121
23.43,146.50,0.121
23.45,146.59,0.121
23.47,146.67,0.121
23.48,146.75,0.121
23.50,146.84,0.122
23.52,146.92,0.122
23.53,147.00,0.122
23.55,147.09,0.122
23.57,147.17,0.122
23.58,147.25,0.122
23.60,147.34,0.122
23.62,147.42,0.122
23.63,147.50,0.122
23.65,147.59,0.122
23.67,147.67,0.122
23.68,147.75,0.122
23.70,147.84,0.122
23.72,147.92,0.122
23.73,148.00,0.122
23.75,148.09,0.122
23.77,148.17,0.122
23.78,148.25,0.122
23.80,148.34,0.122
23.82,148.42,0.122
23.83,148.50,0.122
23.85,148.59,0.122
23.87,148.67,0.122
23.88,148.76,0.122
23.90,148.84,0.122
23.92,148.92,0.122
23.93,149.00,0.122
23.95,149.09,
23.97,149.17,
23.98,149.25,
24.00,,

[step]
Ramp 5.00 °C/min to 30.00 °C
Time,Temperature,Heat Flow (Normalized)
min,°C,W/g
25.00,150.06,-0.043
25.02,150.06,-0.043
25.03,150.06,-0.043
25.05,150.06,-0.043
25.07,150.05,-0.043
25.08,150.04,-0.044
25.10,150.01,-0.046
25.12,149.98,-0.058
25.13,149.94,-0.085
25.15,149.89,-0.106
25.17,149.84,-0.124
25.18,149.78,-0.144
25.20,149.71,-0.156
25.22,149.64,-0.163
25.23,149.57,-0.173
25.25,149.49,-0.181
25.27,149.42,-0.183
25.28,149.34,-0.188
25.30,149.27,-0.190
25.32,149.19,-0.192
25.33,149.11,-0.195
25.35,149.03,-0.196
25.37,148.95,-0.197
25.38,148.87,-0.199
25.40,148.79,-0.200
25.42,148.70,-0.200
25.43,148.62,-0.201
25.45,148.54,-0.201
25.47,148.46,-0.201
25.48,148.38,-0.202
25.50,148.29,-0.202
25.52,148.21,-0.202
25.53,148.13,-0.203
25.55,148.05,-0.203
25.57,147.97,-0.203
25.58,147.88,-0.203
25.60,147.80,-0.204
25.62,147.72,-0.204
25.63,147.63,-0.204
25.65,147.55,-0.204
25.67,147.47,-0.204
25.68,147.39,-0.204
25.70,147.30,-0.204
25.72,147.22,-0.204
25.73,147.14,-0.204
25.75,147.06,-0.204
25.77,146.97,-0.204
25.78,146.89,-0.204
25.80,146.81,-0.204
25.82,146.72,-0.204
25.83,146.64,-0.204
25.85,146.56,-0.204
25.87,146.47,-0.204
25.88,146.39,-0.204
25.90,146.31,-0.204
25.92,146.23,-0.204
25.93,146.14,-0.204
25.95,146.06,-0.204
25.97,145.98,-0.204
25.98,145.89,-0.204
26.00,145.81,-0.204
26.02,145.73,-0.204
26.03,145.64,-0.204
26.05,145.56,-0.203
26.07,145.48,-0.203
26.08,145.39,-0.203
26.10,145.31,-0.203
26.12,145.23,-0.203
26.13,145.15,-0.203
26.15,145.06,-0.203
26.17,144.98,-0.203
26.18,144.90,-0.203
26.20,144.81,-0.203
26.22,144.73,-0.202
26.23,144.65,-0.202
26.25,144.57,-0.202
26.27,144.48,-0.202
26.28,144.40,-0.202
26.30,144.32,-0.202
26.32,144.23,-0.202
26.33,144.15,-0.202
26.35,144.07,-0.202
26.37,143.98,-0.202
26.38,143.90,-0.201
26.40,143.82,-0.201
26.42,143.73,-0.201
26.43,143.65,-0.201
26.45,143.57,-0.201
26.47,143.48,-0.201
26.48,143.40,-0.201
26.50,143.32,-0.200
26.52,143.23,-0.201
26.53,143.15,-0.200
26.55,143.07,-0.200
26.57,142.98,-0.200
26.58,142.90,-0.200
26.60,142.82,-0.200
26.62,142.73,-0.200
26.63,142.65,-0.199
26.65,142.57,-0.199
26.67,142.48,-0.199
26.68,142.40,-0.199
26.70,142.32,-0.199
26.72,142.23,-0.199
26.73,142.15,-0.199
26.75,142.07,-0.199
26.77,141.98,-0.198
26.78,141.90,-0.199
26.80,141.82,-0.199
26.82,141.73,-0.198
26.83,141.65,-0.198
26.85,141.57,-0.198
26.87,141.48,-0.198
26.88,141.40,-0.198
26.90,141.32,-0.198
26.92,141.23,-0.198
26.93,141.15,-0.198
26.95,141.07,-0.198
26.97,140.99,-0.197
26.98,140.90,-0.197
27.00,140.82,-0.197
27.02,140.74,-0.197
27.03,140.65,-0.197
27.05,140.57,-0.197
27.07,140.49,-0.197
27.08,140.40,-0.197
27.10,140.32,-0.196
27.12,140.24,-0.196
27.13,140.15,-0.196
27.15,140.07,-0.196
27.17,139.99,-0.196
27.18,139.90,-0.196
27.20,139.82,-0.196
27.22,139.74,-0.195
27.23,139.65,-0.195
27.25,139.57,-0.195
27.27,139.49,-0.195
27.28,139.40,-0.195
27.30,139.32,-0.195
27.32,139.24,-0.195
27.33,139.15,-0.195
27.35,139.07,-0.195
27.37,138.99,-0.195
27.38,138.90,-0.195
27.40,138.82,-0.194
27.42,138.74,-0.194
27.43,138.66,-0.194
27.45,138.57,-0.194
27.47,138.49,-0.194
27.48,138.41,-0.194
27.50,138.32,-0.194
27.52,138.24,-0.194
27.53,138.16,-0.194
27.55,138.07,-0.193
27.57,137.99,-0.193
27.58,137.91,-0.193
27.60,137.82,-0.193
27.62,137.74,-0.193
27.63,137.66,-0.193
27.65,137.57,-0.193
27.67,137.49,-0.193
27.68,137.41,-0.193
27.70,137.32,-0.193
27.72,137.24,-0.193
27.73,137.16,-0.192
27.75,137.07,-0.192
27.77,136.99,-0.192
27.78,136.91,-0.192
27.80,136.82,-0.192
27.82,136.74,-0.192
27.83,136.66,-0.192
27.85,136.57,-0.192
27.87,136.49,-0.192
27.88,136.41,-0.192
27.90,136.32,-0.192
27.92,136.24,-0.191
27.93,136.16,-0.191
27.95,136.07,-0.191
27.97,135.99,-0.191
27.98,135.91,-0.191
28.00,135.82,-0.191
28.02,135.74,-0.191
28.03,135.65,-0.191
28.05,135.57,-0.191
28.07,135.49,-0.191
28.08,135.41,-0.191
28.10,135.32,-0.191
28.12,135.24,-0.191
28.13,135.16,-0.190
28.15,135.07,-0.190
28.17,134.99,-0.190
28.18,134.90,-0.190
28.20,134.82,-0.190
28.22,134.74,-0.190
28.23,134.66,-0.190
28.25,134.57,-0.190
28.27,134.49,-0.190
28.28,134.41,-0.190
28.30,134.32,-0.190
28.32,134.24,-0.190
28.33,134.16,-0.189
28.35,134.07,-0.189
28.37,133.99,-0.189
28.38,133.91,-0.189
28.40,133.82,-0.189
28.42,133.74,-0.189
28.43,133.66,-0.189
28.45,133.57,-0.189
28.47,133.49,-0.189
28.48,133.41,-0.189
28.50,133.32,-0.189
28.52,133.24,-0.189
28.53,133.16,-0.188
28.55,133.08,-0.188
28.57,132.99,-0.188
28.58,132.91,-0.188
28.60,132.82,-0.188
28.62,132.74,-0.188
28.63,132.66,-0.188
28.65,132.57,-0.188
28.67,132.49,-0.188
28.68,132.41,-0.188
28.70,132.33,-0.188
28.72,132.24,-0.188
28.73,132.16,-0.187
28.75,132.08,-0.187
28.77,131.99,-0.187
28.78,131.91,-0.187
28.80,131.83,-0.187
28.82,131.74,-0.187
28.83,131.66,-0.186
28.85,131.58,-0.187
28.87,131.49,-0.187
28.88,131.41,-0.187
28.90,131.33,-0.186
28.92,131.24,-0.187
28.93,131.16,-0.187
28.95,131.07,-0.187
28.97,130.99,-0.186
28.98,130.91,-0.186
29.00,130.82,-0.186
29.02,130.74,-0.186
29.03,130.66,-0.186
29.05,130.57,-0.186
29.07,130.49,-0.186
29.08,130.41,-0.186
29.10,130.32,-0.186
29.12,130.24,-0.186
29.13,130.16,-0.186
29.15,130.07,-0.186
29.17,129.99,-0.186
29.18,129.91,-0.186
29.20,129.83,-0.186
29.22,129.74,-0.186
29.23,129.66,-0.185
29.25,129.58,-0.185
29.27,129.49,-0.185
29.28,129.41,-0.185
29.30,129.33,-0.185
29.32,129.24,-0.185
29.33,129.16,-0.185
29.35,129.08,-0.185
29.37,128.99,-0.185
29.38,128.91,-0.185
29.40,128.83,-0.185
29.42,128.74,-0.185
29.43,128.66,-0.185
29.45,128.58,-0.185
29.47,128.49,-0.184
29.48,128.41,-0.184
29.50,128.33,-0.184
29.52,128.24,-0.184
29.53,128.16,-0.184
29.55,128.08,-0.184
29.57,127.99,-0.184
29.58,127.91,-0.184
29.60,127.83,-0.184
29.62,127.75,-0.184
29.63,127.66,-0.184
29.65,127.58,-0.184
29.67,127.49,-0.184
29.68,127.41,-0.184
29.70,127.33,-0.184
29.72,127.24,-0.184
29.73,127.16,-0.184
29.75,127.08,-0.184
29.77,126.99,-0.184
29.78,126.91,-0.184
29.80,126.83,-0.184
29.82,126.74,-0.184
29.83,126.66,-0.183
29.85,126.58,-0.183
29.87,126.49,-0.183
29.88,126.41,-0.183
29.90,126.33,-0.183
29.92,126.24,-0.183
29.93,126.16,-0.183
29.95,126.08,-0.183
29.97,125.99,-0.183
29.98,125.91,-0.183
30.00,125.83,-0.183
30.02,125.74,-0.183
30.03,125.66,-0.183
30.05,125.58,-0.183
30.07,125.50,-0.183
30.08,125.41,-0.182
30.10,125.33,-0.182
30.12,125.24,-0.182
30.13,125.16,-0.183
30.15,125.08,-0.182
30.17,124.99,-0.182
30.18,124.91,-0.182
30.20,124.83,-0.182
30.22,124.74,-0.182
30.23,124.66,-0.182
30.25,124.58,-0.182
30.27,124.50,-0.182
30.28,124.41,-0.182
30.30,124.33,-0.182
30.32,124.25,-0.182
30.33,124.16,-0.182
30.35,124.08,-0.182
30.37,124.00,-0.182
30.38,123.91,-0.182
30.40,123.83,-0.182
30.42,123.75,-0.182
30.43,123.66,-0.182
30.45,123.58,-0.182
30.47,123.50,-0.182
30.48,123.41,-0.182
30.50,123.33,-0.182
30.52,123.25,-0.182
30.53,123.16,-0.181
30.55,123.08,-0.181
30.57,123.00,-0.181
30.58,122.91,-0.181
30.60,122.83,-0.181
30.62,122.75,-0.181
30.63,122.66,-0.181
30.65,122.58,-0.181
30.67,122.50,-0.181
30.68,122.41,-0.181
30.70,122.33,-0.181
30.72,122.25,-0.181
30.73,122.17,-0.180
30.75,122.08,-0.180
30.77,122.00,-0.180
30.78,121.91,-0.180
30.80,121.83,-0.180
30.82,121.75,-0.180
30.83,121.66,-0.180
30.85,121.58,-0.180
30.87,121.50,-0.180
30.88,121.41,-0.180
30.90,121.33,-0.180
30.92,121.25,-0.180
30.93,121.16,-0.180
30.95,121.08,-0.180
30.97,121.00,-0.180
30.98,120.91,-0.180
31.00,120.83,-0.180
31.02,120.75,-0.179
31.03,120.66,-0.179
31.05,120.58,-0.179
31.07,120.50,-0.179
31.08,120.41,-0.179
31.10,120.33,-0.179
31.12,120.25,-0.179
31.13,120.16,-0.179
31.15,120.08,-0.179
31.17,120.00,-0.179
31.18,119.91,-0.179
31.20,119.83,-0.179
31.22,119.75,-0.179
31.23,119.66,-0.179
31.25,119.58,-0.179
31.27,119.50,-0.179
31.28,119.41,-0.178
31.30,119.33,-0.178
31.32,119.25,-0.178
31.33,119.16,-0.178
31.35,119.08,-0.178
31.37,119.00,-0.178
31.38,118.91,-0.178
31.40,118.83,-0.178
31.42,118.75,-0.178
31.43,118.66,-0.178
31.45,118.58,-0.178
31.47,118.50,-0.178
31.48,118.41,-0.178
31.50,118.33,-0.178
31.52,118.25,-0.178
31.53,118.16,-0.178
31.55,118.08,-0.178
31.57,118.00,-0.178
31.58,117.91,-0.178
31.60,117.83,-0.178
31.62,117.75,-0.178
31.63,117.66,-0.177
31.65,117.58,-0.177
31.67,117.50,-0.177
31.68,117.42,-0.177
31.70,117.33,-0.177
31.72,117.25,-0.177
31.73,117.17,-0.177
31.75,117.08,-0.177
31.77,117.00,-0.177
31.78,116.92,-0.177
31.80,116.83,-0.177
31.82,116.75,-0.177
31.83,116.67,-0.177
31.85,116.58,-0.177
31.87,116.50,-0.177
31.88,116.42,-0.177
31.90,116.33,-0.176
31.92,116.25,-0.176
31.93,116.17,-0.176
31.95,116.08,-0.176
31.97,116.00,-0.176
31.98,115.92,-0.176
32.00,115.83,-0.176
32.02,115.75,-0.176
32.03,115.67,-0.176
32.05,115.58,-0.176
32.07,115.50,-0.176
32.08,115.42,-0.176
32.10,115.33,-0.176
32.12,115.25,-0.176
32.13,115.17,-0.176
32.15,115.08,-0.176
32.17,115.00,-0.176
32.18,114.92,-0.175
32.20,114.83,-0.175
32.22,114.75,-0.176
32.23,114.67,-0.175
32.25,114.58,-0.175
32.27,114.50,-0.175
32.28,114.42,-0.175
32.30,114.33,-0.175
32.32,114.25,-0.175
32.33,114.17,-0.175
32.35,114.08,-0.175
32.37,114.00,-0.175
32.38,113.92,-0.175
32.40,113.84,-0.175
32.42,113.75,-0.175
32.43,113.67,-0.175
32.45,113.59,-0.175
32.47,113.50,-0.175
32.48,113.42,-0.175
32.50,113.34,-0.174
32.52,113.25,-0.174
32.53,113.17,-0.174
32.55,113.09,-0.174
32.57,113.00,-0.174
32.58,112.92,-0.174
32.60,112.84,-0.174
32.62,112.75,-0.174
32.63,112.67,-0.174
32.65,112.58,-0.174
32.67,112.50,-0.174
32.68,112.42,-0.174
32.70,112.34,-0.174
32.72,112.25,-0.174
32.73,112.17,-0.174
32.75,112.09,-0.174
32.77,112.00,-0.174
32.78,111.92,-0.174
32.80,111.84,-0.174
32.82,111.75,-0.174
32.83,111.67,-0.174
32.85,111.59,-0.173
32.87,111.50,-0.173
32.88,111.42,-0.173
32.90,111.34,-0.173
32.92,111.25,-0.173
32.93,111.17,-0.173
32.95,111.09,-0.173
32.97,111.00,-0.173
32.98,110.92,-0.173
33.00,110.84,-0.173
33.02,110.75,-0.173
33.03,110.67,-0.173
33.05,110.59,-0.173
33.07,110.50,-0.173
33.08,110.42,-0.173
33.10,110.34,-0.173
33.12,110.25,-0.173
33.13,110.17,-0.172
33.15,110.09,-0.173
33.17,110.00,-0.173
33.18,109.92,-0.172
33.20,109.84,-0.172
33.22,109.75,-0.172
33.23,109.67,-0.172
33.25,109.59,-0.172
33.27,109.50,-0.172
33.28,109.42,-0.172
33.30,109.34,-0.172
33.32,109.25,-0.172
33.33,109.17,-0.172
33.35,109.09,-0.172
33.37,109.00,-0.172
33.38,108.92,-0.172
33.40,108.84,-0.172
33.42,108.75,-0.172
33.43,108.67,-0.172
33.45,108.59,-0.172
33.47,108.50,-0.172
33.48,108.42,-0.171
33.50,108.34,-0.172
33.52,108.25,-0.171
33.53,108.17,-0.171
33.55,108.09,-0.171
33.57,108.00,-0.171
33.58,107.92,-0.171
33.60,107.84,-0.171
33.62,107.75,-0.171
33.63,107.67,-0.171
33.65,107.59,-0.171
33.67,107.50,-0.171
33.68,107.42,-0.171
33.70,107.34,-0.171
33.72,107.26,-0.171
33.73,107.17,-0.171
33.75,107.09,-0.171
33.77,107.00,-0.171
33.78,106.92,-0.171
33.80,106.84,-0.171
33.82,106.75,-0.171
33.83,106.67,-0.171
33.85,106.59,-0.171
33.87,106.50,-0.171
33.88,106.42,-0.171
33.90,106.34,-0.171
33.92,106.25,-0.170
33.93,106.17,-0.171
33.95,106.09,-0.170
33.97,106.00,-0.170
33.98,105.92,-0.170
34.00,105.84,-0.170
34.02,105.75,-0.170
34.03,105.67,-0.170
34.05,105.59,-0.170
34.07,105.51,-0.170
34.08,105.42,-0.170
34.10,105.34,-0.170
34.12,105.26,-0.170
34.13,105.17,-0.170
34.15,105.09,-0.170
34.17,105.01,-0.170
34.18,104.92,-0.170
34.20,104.84,-0.170
34.22,104.76,-0.170
34.23,104.67,-0.170
34.25,104.59,-0.170
34.27,104.51,-0.170
34.28,104.42,-0.170
34.30,104.34,-0.170
34.32,104.26,-0.170
34.33,104.17,-0.170
34.35,104.09,-0.169
34.37,104.01,-0.169
34.38,103.92,-0.169
34.40,103.84,-0.169
34.42,103.76,-0.169
34.43,103.67,-0.169
34.45,103.59,-0.169
34.47,103.51,-0.169
34.48,103.42,-0.169
34.50,103.34,-0.169
34.52,103.26,-0.169
34.53,103.17,-0.169
34.55,103.09,-0.169
34.57,103.01,-0.169
34.58,102.92,-0.169
34.60,102.84,-0.169
34.62,102.76,-0.169
34.63,102.67,-0.169
34.65,102.59,-0.169
34.67,102.51,-0.169
34.68,102.42,-0.169
34.70,102.34,-0.168
34.72,102.26,-0.168
34.73,102.17,-0.169
34.75,102.09,-0.169
34.77,102.01,-0.168
34.78,101.92,-0.168
34.80,101.84,-0.168
34.82,101.76,-0.168
34.83,101.67,-0.168
34.85,101.59,-0.168
34.87,101.51,-0.168
34.88,101.42,-0.168
34.90,101.34,-0.168
34.92,101.26,-0.168
34.93,101.17,-0.168
34.95,101.09,-0.168
34.97,101.01,-0.168
34.98,100.92,-0.168
35.00,100.84,-0.168
35.02,100.76,-0.167
35.03,100.67,-0.167
35.05,100.59,-0.167
35.07,100.51,-0.167
35.08,100.42,-0.167
35.10,100.34,-0.167
35.12,100.26,-0.167
35.13,100.17,-0.167
35.15,100.09,-0.167
35.17,100.01,-0.167
35.18,99.92,-0.167
35.20,99.84,-0.167
35.22,99.76,-0.167
35.23,99.67,-0.167
35.25,99.59,-0.167
35.27,99.51,-0.167
35.28,99.42,-0.167
35.30,99.34,-0.167
35.32,99.26,-0.166
35.33,99.17,-0.167
35.35,99.09,-0.167
35.37,99.01,-0.166
35.38,98.92,-0.166
35.40,98.84,-0.166
35.42,98.76,-0.166
35.43,98.68,-0.166
35.45,98.59,-0.166
35.47,98.51,-0.166
35.48,98.43,-0.166
35.50,98.34,-0.166
35.52,98.26,-0.166
35.53,98.18,-0.166
35.55,98.09,-0.337
35.57,99.00,-102.983
35.58,101.25,-18.139
35.60,100.58,-4.280
35.62,100.00,-2.790
35.63,99.50,-1.873
35.65,99.08,-1.582
35.67,98.72,-1.300
35.68,98.41,-1.086
35.70,98.15,-0.926
35.72,97.91,-0.788
35.73,97.71,-0.675
35.75,97.52,-0.584
35.77,97.36,-0.500
35.78,97.21,-0.432
35.80,97.07,-0.377
35.82,96.95,-0.333
35.83,96.83,-0.295
35.85,96.71,-0.265
35.87,96.61,-0.243
35.88,96.51,-0.223
35.90,96.41,-0.202
35.92,96.31,-0.192
35.93,96.22,-0.177
35.95,96.12,-0.172
35.97,96.03,-0.161
35.98,95.95,-0.157
36.00,95.86,-0.155
36.02,95.77,-0.146
36.03,95.68,-0.145
36.05,95.60,-0.142
36.07,95.51,-0.143
36.08,95.43,-0.139
36.10,95.34,-0.138
36.12,95.26,-0.138
36.13,95.17,-0.136
36.15,95.09,-0.135
36.17,95.01,-0.135
36.18,94.92,-0.134
36.20,94.84,-0.133
36.22,94.76,-0.133
36.23,94.67,-0.133
36.25,94.59,-0.132
36.27,94.51,-0.132
36.28,94.42,-0.131
36.30,94.34,-0.131
36.32,94.26,-0.131
36.33,94.17,-0.131
36.35,94.09,-0.130
36.37,94.01,-0.130
36.38,93.92,-0.130
36.40,93.84,-0.130
36.42,93.75,-0.129
36.43,93.67,-0.129
36.45,93.59,-0.129
36.47,93.50,-0.129
36.48,93.42,-0.128
36.50,93.34,-0.128
36.52,93.26,-0.128
36.53,93.17,-0.128
36.55,93.09,-0.127
36.57,93.00,-0.127
36.58,92.92,-0.127
[...]
81.65,117.58,-0.177
81.67,117.50,-0.177
81.68,117.42,-0.177
81.70,117.33,-0.177
81.72,117.25,-0.177
81.73,117.17,-0.177
81.75,117.08,-0.177
81.77,117.00,-0.176
81.78,116.92,-0.177
81.80,116.83,-0.177
81.82,116.75,-0.176
81.83,116.67,-0.176
81.85,116.58,-0.176
81.87,116.50,-0.176
81.88,116.42,-0.176
81.90,116.33,-0.176
81.92,116.25,-0.176
81.93,116.17,-0.176
81.95,116.08,-0.176
81.97,116.00,-0.176
81.98,115.92,-0.176
82.00,115.84,-0.176
82.02,115.75,-0.176
82.03,115.67,-0.176
82.05,115.58,-0.176
82.07,115.50,-0.175
82.08,115.42,-0.175
82.10,115.34,-0.175
82.12,115.25,-0.175
82.13,115.17,-0.175
82.15,115.08,-0.175
82.17,115.00,-0.175
82.18,114.92,-0.175
82.20,114.83,-0.175
82.22,114.75,-0.175
82.23,114.67,-0.175
82.25,114.59,-0.175
82.27,114.50,-0.175
82.28,114.42,-0.175
82.30,114.33,-0.175
82.32,114.25,-0.175
82.33,114.17,-0.175
82.35,114.08,-0.175
82.37,114.00,-0.175
82.38,113.92,-0.174
82.40,113.84,-0.174
82.42,113.75,-0.174
82.43,113.67,-0.174
82.45,113.59,-0.174
82.47,113.50,-0.174
82.48,113.42,-0.174
82.50,113.34,-0.174
82.52,113.25,-0.174
82.53,113.17,-0.174
82.55,113.09,-0.174
82.57,113.00,-0.174
82.58,112.92,-0.173
82.60,112.84,-0.173
82.62,112.75,-0.173
82.63,112.67,-0.173
82.65,112.59,-0.173
82.67,112.50,-0.173
82.68,112.42,-0.173
82.70,112.34,-0.173
82.72,112.25,-0.173
82.73,112.17,-0.173
82.75,112.09,-0.173
82.77,112.00,-0.173
82.78,111.92,-0.173
82.80,111.84,-0.173
82.82,111.75,-0.173
82.83,111.67,-0.173
82.85,111.59,-0.173
82.87,111.50,-0.173
82.88,111.42,-0.173
82.90,111.34,-0.173
82.92,111.25,-0.173
82.93,111.17,-0.173
82.95,111.09,-0.173
82.97,111.00,-0.173
82.98,110.92,-0.173
83.00,110.84,-0.173
83.02,110.75,-0.173
83.03,110.67,-0.173
83.05,110.59,-0.173
83.07,110.50,-0.172
83.08,110.42,-0.172
83.10,110.34,-0.172
83.12,110.25,-0.172
83.13,110.17,-0.172
83.15,110.09,-0.172
83.17,110.00,-0.172
83.18,109.92,-0.172
83.20,109.84,-0.172
83.22,109.75,-0.172
83.23,109.67,-0.172
83.25,109.59,-0.172
83.27,109.50,-0.172
83.28,109.42,-0.172
83.30,109.34,-0.172
83.32,109.25,-0.172
83.33,109.17,-0.172
83.35,109.09,-0.172
83.37,109.00,-0.172
83.38,108.92,-0.172
83.40,108.84,-0.172
83.42,108.75,-0.171
83.43,108.67,-0.172
83.45,108.59,-0.172
83.47,108.51,-0.171
83.48,108.42,-0.171
83.50,108.34,-0.171
83.52,108.26,-0.171
83.53,108.17,-0.171
83.55,108.09,-0.171
83.57,108.01,-0.171
83.58,107.92,-0.171
83.60,107.84,-0.171
83.62,107.76,-0.171
83.63,107.67,-0.171
83.65,107.59,-0.171
83.67,107.51,-0.171
83.68,107.42,-0.171
83.70,107.34,-0.171
83.72,107.26,-0.171
83.73,107.17,-0.171
83.75,107.09,-0.171
83.77,107.01,-0.171
83.78,106.92,-0.171
83.80,106.84,-0.171
83.82,106.76,-0.171
83.83,106.67,-0.171
83.85,106.59,-0.171
83.87,106.51,-0.170
83.88,106.42,-0.170
83.90,106.34,-0.170
83.92,106.26,-0.170
83.93,106.17,-0.170
83.95,106.09,-0.170
83.97,106.01,-0.170
83.98,105.92,-0.170
84.00,105.84,-0.170
84.02,105.76,-0.170
84.03,105.67,-0.170
84.05,105.59,-0.170
84.07,105.51,-0.170
84.08,105.42,-0.170
84.10,105.34,-0.170
84.12,105.26,-0.170
84.13,105.17,-0.169
84.15,105.09,-0.169
84.17,105.01,-0.169
84.18,104.92,-0.169
84.20,104.84,-0.169
84.22,104.76,-0.169
84.23,104.67,-0.169
84.25,104.59,-0.169
84.27,104.51,-0.169
84.28,104.42,-0.169
84.30,104.34,-0.169
84.32,104.26,-0.169
84.33,104.17,-0.169
84.35,104.09,-0.169
84.37,104.01,-0.169
84.38,103.92,-0.169
84.40,103.84,-0.169
84.42,103.76,-0.169
84.43,103.67,-0.169
84.45,103.59,-0.168
84.47,103.51,-0.168
84.48,103.42,-0.168
84.50,103.34,-0.168
84.52,103.26,-0.168
84.53,103.17,-0.168
84.55,103.09,-0.168
84.57,103.01,-0.168
84.58,102.92,-0.168
84.60,102.84,-0.168
84.62,102.76,-0.168
84.63,102.67,-0.168
84.65,102.59,-0.168
84.67,102.51,-0.168
84.68,102.43,-0.168
84.70,102.34,-0.168
84.72,102.26,-0.168
84.73,102.17,-0.168
84.75,102.09,-0.168
84.77,102.01,-0.168
84.78,101.93,-0.168
84.80,101.84,-0.168
84.82,101.76,-0.168
84.83,101.68,-0.168
84.85,101.59,-0.168
84.87,101.51,-0.168
84.88,101.43,-0.168
84.90,101.34,-0.167
84.92,101.26,-0.167
84.93,101.18,-0.167
84.95,101.09,-0.167
84.97,101.01,-0.167
84.98,100.93,-0.167
85.00,100.84,-0.167
85.02,100.76,-0.167
85.03,100.68,-0.167
85.05,100.59,-0.167
85.07,100.51,-0.167
85.08,100.43,-0.167
85.10,100.34,-0.167
85.12,100.26,-0.167
85.13,100.18,-0.167
85.15,100.09,-0.167
85.17,100.01,-0.167
85.18,99.93,-0.167
85.20,99.84,-0.167
85.22,99.76,-0.167
85.23,99.68,-0.166
85.25,99.59,-0.166
85.27,99.51,-0.166
85.28,99.43,-0.166
85.30,99.34,-0.166
85.32,99.26,-0.166
85.33,99.18,-0.166
85.35,99.09,-0.166
85.37,99.01,-0.166
85.38,98.93,-0.166
85.40,98.84,-0.166
85.42,98.76,-0.166
85.43,98.68,-0.166
85.45,98.59,-0.166
85.47,98.51,-0.166
85.48,98.43,-0.166
85.50,98.34,-0.166
85.52,98.26,-0.165
85.53,98.18,-0.165
85.55,98.09,-0.165
85.57,98.01,-0.165
85.58,97.93,-0.165
85.60,97.84,-0.165
85.62,97.76,-0.165
85.63,97.68,-0.165
85.65,97.59,-0.165
85.67,97.51,-0.165
85.68,97.43,-0.165
85.70,97.34,-6.401
85.72,99.95,-118.437
85.73,100.32,-8.929
85.75,99.67,-3.556
85.77,99.11,-2.434
85.78,98.64,-1.779
85.80,98.24,-1.473
85.82,97.90,-1.214
85.83,97.60,-1.020
85.85,97.35,-0.874
85.87,97.12,-0.754
85.88,96.92,-0.648
85.90,96.75,-0.560
85.92,96.59,-0.484
85.93,96.44,-0.415
85.95,96.31,-0.367
85.97,96.19,-0.326
85.98,96.07,-0.285
86.00,95.96,-0.255
86.02,95.85,-0.233
86.03,95.75,-0.212
86.05,95.65,-0.198
86.07,95.56,-0.186
86.08,95.47,-0.176
86.10,95.37,-0.162
86.12,95.29,-0.162
86.13,95.20,-0.156
86.15,95.11,-0.151
86.17,95.02,-0.146
86.18,94.94,-0.144
86.20,94.85,-0.142
86.22,94.77,-0.140
86.23,94.68,-0.138
86.25,94.60,-0.137
86.27,94.51,-0.137
86.28,94.43,-0.136
86.30,94.34,-0.135
86.32,94.26,-0.135
86.33,94.17,-0.134
86.35,94.09,-0.134
86.37,94.01,-0.133
86.38,93.92,-0.133
86.40,93.84,-0.132
86.42,93.76,-0.132
86.43,93.67,-0.132
86.45,93.59,-0.131
86.47,93.51,-0.131
86.48,93.42,-0.130
86.50,93.34,-0.130
86.52,93.26,-0.130
86.53,93.17,-0.130
86.55,93.09,-0.129
86.57,93.01,-0.129
86.58,92.92,-0.129
86.60,92.84,-0.129
86.62,92.76,-0.128
86.63,92.67,-0.128
86.65,92.59,-0.128
86.67,92.51,-0.128
86.68,92.42,-0.128
86.70,92.34,-0.127
86.72,92.26,-0.127
86.73,92.17,-0.127
86.75,92.09,-0.126
86.77,92.01,-0.126
86.78,91.93,-0.126
86.80,91.84,-0.126
86.82,91.76,-0.126
86.83,91.67,-0.126
86.85,91.59,-0.126
86.87,91.51,-0.126
86.88,91.42,-0.126
86.90,91.34,-0.126
86.92,91.26,-0.126
86.93,91.17,-0.125
86.95,91.09,-0.126
86.97,91.01,-0.126
86.98,90.93,-0.126
87.00,90.84,-0.126
87.02,90.76,-0.126
87.03,90.68,-0.126
87.05,90.59,-0.125
87.07,90.51,-0.125
87.08,90.42,-0.125
87.10,90.34,-0.125
87.12,90.26,-0.125
87.13,90.17,-0.125
87.15,90.09,-0.125
87.17,90.01,-0.125
87.18,89.93,-0.125
87.20,89.84,-0.125
87.22,89.76,-0.124
87.23,89.67,-0.124
87.25,89.59,-0.124
87.27,89.51,-0.124
87.28,89.43,-0.124
87.30,89.34,-0.124
87.32,89.26,-0.124
87.33,89.18,-0.124
87.35,89.09,-0.124
87.37,89.01,-0.124
87.38,88.93,-0.124
87.40,88.84,-0.123
87.42,88.76,-0.123
87.43,88.68,-0.124
87.45,88.59,-0.124
87.47,88.51,-0.124
87.48,88.43,-0.124
87.50,88.34,-0.124
87.52,88.26,-0.123
87.53,88.18,-0.123
87.55,88.09,-0.124
87.57,88.01,-0.123
87.58,87.93,-0.123
87.60,87.84,-0.123
87.62,87.76,-0.123
87.63,87.67,-0.123
87.65,87.59,-0.123
87.67,87.51,-0.123
87.68,87.43,-0.123
87.70,87.34,-0.123
87.72,87.26,-0.123
87.73,87.18,-0.123
87.75,87.09,-0.123
87.77,87.01,-0.123
87.78,86.93,-0.123
87.80,86.84,-0.123
87.82,86.76,-0.122
87.83,86.68,-0.122
87.85,86.59,-0.122
87.87,86.51,-0.122
87.88,86.43,-0.122
87.90,86.34,-0.122
87.92,86.26,-0.122
87.93,86.18,-0.122
87.95,86.09,-0.122
87.97,86.01,-0.122
87.98,85.93,-0.122
88.00,85.84,-0.122
88.02,85.76,-0.122
88.03,85.68,-0.122
88.05,85.59,-0.122
88.07,85.51,-0.122
88.08,85.43,-0.122
88.10,85.34,-0.122
88.12,85.26,-0.122
88.13,85.18,-0.121
88.15,85.09,-0.121
88.17,85.01,-0.121
88.18,84.93,-0.121
88.20,84.84,-0.121
88.22,84.76,-0.121
88.23,84.68,-0.121
88.25,84.59,-0.121
88.27,84.51,-0.121
88.28,84.43,-0.121
88.30,84.34,-0.121
88.32,84.26,-0.121
88.33,84.18,-0.121
88.35,84.09,-0.121
88.37,84.01,-0.121
88.38,83.93,-0.121
88.40,83.84,-0.121
88.42,83.76,-0.121
88.43,83.68,-0.121
88.45,83.59,-0.121
88.47,83.51,-0.121
88.48,83.43,-0.121
88.50,83.34,-0.121
88.52,83.26,-0.121
88.53,83.18,-0.121
88.55,83.09,-0.120
88.57,83.01,-0.120
88.58,82.93,-0.120
88.60,82.84,-0.120
88.62,82.76,-0.120
88.63,82.68,-0.120
88.65,82.59,-0.120
88.67,82.51,-0.120
88.68,82.43,-0.120
88.70,82.35,-0.120
88.72,82.26,-0.120
88.73,82.18,-0.120
88.75,82.10,-0.120
88.77,82.01,-0.120
88.78,81.93,-0.120
88.80,81.85,-0.120
88.82,81.76,-0.120
88.83,81.68,-0.120
88.85,81.60,-0.120
88.87,81.51,-0.120
88.88,81.43,-0.120
88.90,81.35,-0.120
88.92,81.26,-0.120
88.93,81.18,-0.120
88.95,81.10,-0.120
88.97,81.01,-0.120
88.98,80.93,-0.120
89.00,80.85,-0.120
89.02,80.76,-0.120
89.03,80.68,-0.120
89.05,80.60,-0.119
89.07,80.51,-0.119
89.08,80.43,-0.119
89.10,80.35,-0.119
89.12,80.26,-0.119
89.13,80.18,-0.119
89.15,80.10,-0.119
89.17,80.01,-0.119
89.18,79.93,-0.119
89.20,79.85,-0.119
89.22,79.76,-0.119
89.23,79.68,-0.119
89.25,79.60,-0.119
89.27,79.51,-0.119
89.28,79.43,-0.119
89.30,79.35,-0.119
89.32,79.26,-0.118
89.33,79.18,-0.118
89.35,79.10,-0.118
89.37,79.01,-0.118
89.38,78.93,-0.118
89.40,78.85,-0.118
89.42,78.76,-0.118
89.43,78.68,-0.118
89.45,78.60,-0.118
89.47,78.51,-0.118
89.48,78.43,-0.118
89.50,78.35,-0.118
89.52,78.26,-0.118
89.53,78.18,-0.118
89.55,78.10,-0.118
89.57,78.02,-0.118
89.58,77.93,-0.117
89.60,77.85,-0.118
89.62,77.76,-0.118
89.63,77.68,-0.117
89.65,77.60,-0.118
89.67,77.51,-0.118
89.68,77.43,-0.118
89.70,77.35,-0.118
89.72,77.26,-0.117
89.73,77.18,-0.117
89.75,77.10,-0.118
89.77,77.01,-0.117
89.78,76.93,-0.117
89.80,76.85,-0.117
89.82,76.76,-0.117
89.83,76.68,-0.117
89.85,76.60,-0.117
89.87,76.51,-0.117
89.88,76.43,-0.117
89.90,76.35,-0.117
89.92,76.26,-0.117
89.93,76.18,-0.117
89.95,76.10,-0.117
89.97,76.01,-0.117
89.98,75.93,-0.117
90.00,75.85,-0.117
90.02,75.76,-0.117
90.03,75.68,-0.117
90.05,75.60,-0.117
90.07,75.51,-0.117
90.08,75.43,-0.117
90.10,75.35,-0.117
90.12,75.27,-0.117
90.13,75.18,-0.117
90.15,75.10,-0.117
90.17,75.02,-0.117
90.18,74.93,-0.116
90.20,74.85,-0.116
90.22,74.77,-0.116
90.23,74.68,-0.116
90.25,74.60,-0.116
90.27,74.52,-0.116
90.28,74.43,-0.116
90.30,74.35,-0.116
90.32,74.27,-0.116
90.33,74.18,-0.116
90.35,74.10,-0.116
90.37,74.02,-0.116
90.38,73.93,-0.116
90.40,73.85,-0.116
90.42,73.77,-0.116
90.43,73.68,-0.116
90.45,73.60,-0.116
90.47,73.52,-0.116
90.48,73.43,-0.116
90.50,73.35,-0.116
90.52,73.27,-0.116
90.53,73.18,-0.115
90.55,73.10,-0.116
90.57,73.02,-0.116
90.58,72.93,-0.116
90.60,72.85,-0.116
90.62,72.77,-0.115
90.63,72.68,-0.115
90.65,72.60,-0.115
90.67,72.52,-0.115
90.68,72.43,-0.115
90.70,72.35,-0.115
90.72,72.27,-0.115
90.73,72.18,-0.115
90.75,72.10,-0.115
90.77,72.02,-0.115
90.78,71.93,-0.115
90.80,71.85,-0.115
90.82,71.77,-0.115
90.83,71.68,-0.115
90.85,71.60,-0.115
90.87,71.52,-0.115
90.88,71.43,-0.115
90.90,71.35,-0.114
90.92,71.27,-0.114
90.93,71.18,-0.114
90.95,71.10,-0.114
90.97,71.02,-0.114
90.98,70.93,-0.114
91.00,70.85,-0.114
91.02,70.77,-0.114
91.03,70.68,-0.114
91.05,70.60,-0.114
91.07,70.52,-0.114
91.08,70.43,-0.114
91.10,70.35,-0.114
91.12,70.27,-0.114
91.13,70.18,-0.114
91.15,70.10,-0.114
91.17,70.02,-0.114
91.18,69.93,-0.114
91.20,69.85,-0.114
91.22,69.77,-0.114
91.23,69.68,-0.114
91.25,69.60,-0.114
91.27,69.52,-0.114
91.28,69.43,-0.114
91.30,69.35,-0.114
91.32,69.27,-0.114
91.33,69.18,-0.114
91.35,69.10,-0.113
91.37,69.02,-0.114
91.38,68.93,-0.113
91.40,68.85,-0.113
91.42,68.77,-0.113
91.43,68.68,-0.113
91.45,68.60,-0.113
91.47,68.52,-0.113
91.48,68.43,-0.113
91.50,68.35,-0.113
91.52,68.27,-0.113
91.53,68.18,-0.113
91.55,68.10,-0.113
91.57,68.02,-0.113
91.58,67.93,-0.113
91.60,67.85,-0.113
91.62,67.77,-0.113
91.63,67.68,-0.113
91.65,67.60,-0.113
91.67,67.52,-0.113
91.68,67.43,-0.113
91.70,67.35,-0.112
91.72,67.27,-0.113
91.73,67.18,-0.113
91.75,67.10,-0.113
91.77,67.02,-0.113
91.78,66.94,-0.112
91.80,66.85,-0.112
91.82,66.77,-0.112
91.83,66.68,-0.112
91.85,66.60,-0.112
91.87,66.52,-0.112
91.88,66.44,-0.112
91.90,66.35,-0.112
91.92,66.27,-0.112
91.93,66.19,-0.112
91.95,66.10,-0.112
91.97,66.02,-0.112
91.98,65.94,-0.112
92.00,65.85,-0.112
92.02,65.77,-0.112
92.03,65.69,-0.112
92.05,65.60,-0.112
92.07,65.52,-0.112
92.08,65.44,-0.112
92.10,65.35,-0.112
92.12,65.27,-0.112
92.13,65.19,-0.112
92.15,65.10,-0.112
92.17,65.02,-0.112
92.18,64.94,-0.112
92.20,64.85,-0.112
92.22,64.77,-0.111
92.23,64.69,-0.112
92.25,64.60,-0.112
92.27,64.52,-0.112
92.28,64.44,-0.111
92.30,64.35,-0.111
92.32,64.27,-0.111
92.33,64.19,-0.111
92.35,64.11,-0.111
92.37,64.02,-0.111
92.38,63.94,-0.111
92.40,63.85,-0.111
92.42,63.77,-0.111
92.43,63.69,-0.111
92.45,63.60,-0.111
92.47,63.52,-0.111
92.48,63.44,-0.111
92.50,63.35,-0.111
92.52,63.27,-0.111
92.53,63.19,-0.111
92.55,63.10,-0.111
92.57,63.02,-0.111
92.58,62.94,-0.110
92.60,62.85,-0.110
92.62,62.77,-0.110
92.63,62.69,-0.110
92.65,62.60,-0.110
92.67,62.52,-0.110
92.68,62.44,-0.110
92.70,62.35,-0.110
92.72,62.27,-0.110
92.73,62.19,-0.110
92.75,62.10,-0.110
92.77,62.02,-0.110
92.78,61.94,-0.110
92.80,61.85,-0.110
92.82,61.77,-0.110
92.83,61.69,-0.110
92.85,61.60,-0.110
92.87,61.52,-0.110
92.88,61.44,-0.110
92.90,61.35,-0.110
92.92,61.27,-0.110
92.93,61.19,-0.109
92.95,61.10,-0.109
92.97,61.02,-0.109
92.98,60.94,-0.109
93.00,60.85,-0.109
93.02,60.77,-0.109
93.03,60.69,-0.109
93.05,60.60,-0.109
93.07,60.52,-0.111
93.08,60.44,-0.111
93.10,60.36,-0.110
93.12,60.27,-0.110
93.13,60.19,-0.110
93.15,60.11,-0.110
93.17,60.02,-0.110
93.18,59.94,-0.110
93.20,59.86,-0.110
93.22,59.77,-0.110
93.23,59.69,-0.109
93.25,59.61,-0.109
93.27,59.52,-0.109
93.28,59.44,-0.109
93.30,59.36,-0.109
93.32,59.27,-0.109
93.33,59.19,-0.109
93.35,59.11,-0.109
93.37,59.02,-0.109
93.38,58.94,-0.108
93.40,58.86,-0.109
93.42,58.77,-0.109
93.43,58.69,-0.108
93.45,58.61,-0.108
93.47,58.52,-0.108
93.48,58.44,-0.108
93.50,58.36,-0.108
93.52,58.27,-0.108
93.53,58.19,-0.108
93.55,58.10,-0.108
93.57,58.02,-0.108
93.58,57.94,-0.107
93.60,57.86,-0.107
93.62,57.77,-0.107
93.63,57.69,-0.108
93.65,57.61,-0.107
93.67,57.52,-0.108
93.68,57.44,-0.108
93.70,57.35,-0.107
93.72,57.27,-0.107
93.73,57.19,-0.107
93.75,57.11,-0.107
93.77,57.02,-0.107
93.78,56.94,-0.107
93.80,56.86,-0.107
93.82,56.77,-0.107
93.83,56.69,-0.107
93.85,56.61,-0.107
93.87,56.52,-0.107
93.88,56.44,-0.107
93.90,56.36,-0.107
93.92,56.27,-0.107
93.93,56.19,-0.107
93.95,56.11,-0.107
93.97,56.02,-0.107
93.98,55.94,-0.107
94.00,55.86,-0.107
94.02,55.77,-0.107
94.03,55.69,-0.107
94.05,55.61,-0.106
94.07,55.52,-0.106
94.08,55.44,-0.106
94.10,55.36,-0.106
94.12,55.27,-0.106
94.13,55.19,-0.106
94.15,55.11,-0.106
94.17,55.02,-0.106
94.18,54.94,-0.106
94.20,54.86,-0.106
94.22,54.77,-0.106
94.23,54.69,-0.106
94.25,54.61,-0.106
94.27,54.52,-0.106
94.28,54.44,-0.106
94.30,54.36,-0.106
94.32,54.27,-0.106
94.33,54.19,-0.106
94.35,54.11,-0.106
94.37,54.02,-0.106
94.38,53.94,-0.106
94.40,53.86,-0.106
94.42,53.78,-0.106
94.43,53.69,-0.106
94.45,53.61,-0.106
94.47,53.53,-0.107
94.48,53.44,-0.107
94.50,53.36,-0.107
94.52,53.28,-0.106
94.53,53.19,-0.106
94.55,53.11,-0.106
94.57,53.03,-0.106
94.58,52.94,-0.106
94.60,52.86,-0.106
94.62,52.78,-0.106
94.63,52.69,-0.106
94.65,52.61,-0.106
94.67,52.53,-0.106
94.68,52.44,-0.106
94.70,52.36,-0.105
94.72,52.28,-0.105
94.73,52.19,-0.105
94.75,52.11,-0.105
94.77,52.03,-0.105
94.78,51.94,-0.105
94.80,51.86,-0.105
94.82,51.78,-0.105
94.83,51.69,-0.105
94.85,51.61,-0.106
94.87,51.53,-0.106
94.88,51.44,-0.106
94.90,51.36,-0.106
94.92,51.27,-0.106
94.93,51.19,-0.105
94.95,51.11,-0.105
94.97,51.02,-0.105
94.98,50.94,-0.105
95.00,50.86,-0.104
95.02,50.77,-0.104
95.03,50.69,-0.104
95.05,50.61,-0.104
95.07,50.52,-0.104
95.08,50.44,-0.104
95.10,50.36,-0.104
95.12,50.27,-0.104
95.13,50.19,-0.104
95.15,50.11,-0.104
95.17,50.03,-0.104
95.18,49.94,-0.104
95.20,49.86,-0.104
95.22,49.77,-0.104
95.23,49.69,-0.104
95.25,49.61,-0.104
95.27,49.52,-0.104
95.28,49.44,-0.104
95.30,49.36,-0.104
95.32,49.28,-0.105
95.33,49.19,-0.105
95.35,49.11,-0.105
95.37,49.03,-0.105
95.38,48.94,-0.105
95.40,48.86,-0.105
95.42,48.78,-0.105
95.43,48.69,-0.105
95.45,48.61,-0.105
95.47,48.53,-0.104
95.48,48.44,-0.104
95.50,48.36,-0.104
95.52,48.28,-0.104
95.53,48.19,-0.104
95.55,48.11,-0.104
95.57,48.03,-0.103
95.58,47.95,-0.103
95.60,47.86,-0.103
95.62,47.78,-0.103
95.63,47.70,-0.103
95.65,47.61,-0.103
95.67,47.53,-0.103
95.68,47.44,-0.103
95.70,47.36,-0.103
95.72,47.28,-0.103
95.73,47.19,-0.103
95.75,47.11,-0.103
95.77,47.03,-0.103
95.78,46.94,-0.103
95.80,46.86,-0.103
95.82,46.78,-0.102
95.83,46.69,-0.102
95.85,46.61,-0.102
95.87,46.53,-0.102
95.88,46.44,-0.102
95.90,46.36,-0.102
95.92,46.28,-0.102
95.93,46.19,-0.102
95.95,46.11,-0.102
95.97,46.03,-0.102
95.98,45.94,-0.102
96.00,45.86,-0.102
96.02,45.78,-0.102
96.03,45.69,-0.101
96.05,45.61,-0.102
96.07,45.53,-0.102
96.08,45.44,-0.101
96.10,45.36,-0.101
96.12,45.28,-0.102
96.13,45.19,-0.102
96.15,45.11,-0.102
96.17,45.03,-0.104
96.18,44.95,-0.106
96.20,44.86,-0.105
96.22,44.78,-0.105
96.23,44.70,-0.104
96.25,44.61,-0.104
96.27,44.53,-0.103
96.28,44.45,-0.103
96.30,44.36,-0.103
96.32,44.28,-0.103
96.33,44.20,-0.103
96.35,44.11,-0.103
96.37,44.03,-0.103
96.38,43.95,-0.102
96.40,43.86,-0.102
96.42,43.78,-0.102
96.43,43.70,-0.102
96.45,43.61,-0.102
96.47,43.53,-0.102
96.48,43.45,-0.102
96.50,43.36,-0.102
96.52,43.28,-0.102
96.53,43.20,-0.101
96.55,43.11,-0.101
96.57,43.03,-0.101
96.58,42.94,-0.101
96.60,42.86,-0.101
96.62,42.78,-0.101
96.63,42.70,-0.101
96.65,42.61,-0.101
96.67,42.53,-0.101
96.68,42.45,-0.101
96.70,42.36,-0.100
96.72,42.28,-0.100
96.73,42.20,-0.100
96.75,42.11,-0.100
96.77,42.03,-0.101
96.78,41.95,-0.101
96.80,41.86,-0.101
96.82,41.78,-0.101
96.83,41.70,-0.100
96.85,41.62,-0.100
96.87,41.53,-0.100
96.88,41.45,-0.100
96.90,41.37,-0.100
96.92,41.28,-0.100
96.93,41.20,-0.100
96.95,41.12,-0.100
96.97,41.03,-0.100
96.98,40.95,-0.100
97.00,40.87,-0.100
97.02,40.78,-0.099
97.03,40.70,-0.099
97.05,40.62,-0.099
97.07,40.53,-0.101
97.08,40.45,-0.101
97.10,40.36,-0.100
97.12,40.28,-0.100
97.13,40.20,-0.100
97.15,40.11,-0.100
97.17,40.03,-0.100
97.18,39.95,-0.100
97.20,39.86,-0.100
97.22,39.78,-0.100
97.23,39.70,-0.100
97.25,39.61,-0.100
97.27,39.53,-0.099
97.28,39.45,-0.099
97.30,39.36,-0.099
97.32,39.28,-0.099
97.33,39.20,-0.099
97.35,39.11,-0.099
97.37,39.03,-0.099
97.38,38.95,-0.099
97.40,38.86,-0.099
97.42,38.78,-0.098
97.43,38.70,-0.099
97.45,38.61,-0.098
97.47,38.53,-0.098
97.48,38.45,-0.098
97.50,38.36,-0.098
97.52,38.28,-0.098
97.53,38.20,-0.098
97.55,38.11,-0.098
97.57,38.03,-0.097
97.58,37.95,-0.097
97.60,37.86,-0.098
97.62,37.78,-0.097
97.63,37.70,-0.097
97.65,37.61,-0.097
97.67,37.53,-0.097
97.68,37.45,-0.097
97.70,37.37,-0.097
97.72,37.28,-0.097
97.73,37.20,-0.097
97.75,37.11,-0.097
97.77,37.03,-0.097
97.78,36.95,-0.097
97.80,36.86,-0.097
97.82,36.78,-0.097
97.83,36.70,-0.097
97.85,36.61,-0.097
97.87,36.53,-0.097
97.88,36.45,-0.097
97.90,36.36,-0.097
97.92,36.28,-0.097
97.93,36.20,-0.097
97.95,36.11,-0.097
97.97,36.03,-0.097
97.98,35.95,-0.097
98.00,35.86,-0.097
98.02,35.78,-0.097
98.03,35.70,-0.096
98.05,35.61,-0.097
98.07,35.53,-0.097
98.08,35.45,-0.096
98.10,35.36,-0.097
98.12,35.28,-0.097
98.13,35.20,-0.096
98.15,35.12,-0.097
98.17,35.03,-0.096
98.18,34.95,-0.096
98.20,34.86,-0.096
98.22,34.78,-0.096
98.23,34.70,-0.096
98.25,34.62,-0.096
98.27,34.53,-0.096
98.28,34.45,-0.096
98.30,34.37,-0.096
98.32,34.28,-0.096
98.33,34.20,-0.096
98.35,34.12,-0.096
98.37,34.03,-0.096
98.38,33.95,-0.096
98.40,33.87,-0.096
98.42,33.78,-0.096
98.43,33.70,-0.096
98.45,33.62,-0.096
98.47,33.53,-0.096
98.48,33.45,-0.096
98.50,33.37,-0.096
98.52,33.28,-0.096
98.53,33.20,-0.096
98.55,33.12,-0.096
98.57,33.03,-0.096
98.58,32.95,-0.096
98.60,32.87,-0.096
98.62,32.78,-0.095
98.63,32.70,-0.095
98.65,32.62,-0.095
98.67,32.53,-0.095
98.68,32.45,-0.095
98.70,32.37,-0.095
98.72,32.28,-0.095
98.73,32.20,-0.095
98.75,32.12,-0.095
98.77,32.04,-0.095
98.78,31.95,-0.095
98.80,31.87,-0.095
98.82,31.79,-0.095
98.83,31.70,-0.094
98.85,31.62,-0.095
98.87,31.54,-0.094
98.88,31.45,-0.095
98.90,31.37,-0.094
98.92,31.29,-0.094
98.93,31.20,-0.094
98.95,31.12,
98.97,31.03,
98.98,30.95,
99.00,,