File: Data/Indium_DSC_Data.csv
Instrument name,DSC2A-00468
Operator,Jeff Yarger
Sample name,Indium
[step]
Ramp 10.00 °C/min to 200.00 °C
Time,Temperature,Heat Flow (Normalized)
min,°C,W/g
36.00,30.13,-0.010
36.01,30.13,-0.010
36.03,30.13,-0.010
36.04,30.13,-0.010
36.05,30.14,-0.009
36.06,30.15,-0.003
36.07,30.16,0.007
36.09,30.19,0.016
36.10,30.22,0.027
36.11,30.26,0.038
36.12,30.31,0.048
36.13,30.37,0.056
36.14,30.43,0.062
36.16,30.51,0.067
36.17,30.59,0.070
36.18,30.67,0.073
36.19,30.76,0.074
36.20,30.85,0.075
36.21,30.95,0.076
36.23,31.04,0.077
36.24,31.14,0.078
36.25,31.24,0.079
36.26,31.34,0.080
36.27,31.45,0.080
36.28,31.55,0.081
36.29,31.66,0.082
36.31,31.77,0.082
36.32,31.87,0.082
36.33,31.98,0.083
36.34,32.09,0.083
36.35,32.20,0.083
36.36,32.31,0.084
36.38,32.42,0.084
36.39,32.54,0.084
36.40,32.65,0.084
36.41,32.76,0.084
36.42,32.87,0.084
36.44,32.99,0.084
36.45,33.10,0.084
36.46,33.21,0.084
36.47,33.33,0.084
36.48,33.44,0.084
36.49,33.56,0.085
36.51,33.67,0.085
36.52,33.79,0.085
36.53,33.90,0.085
36.54,34.01,0.085
36.55,34.13,0.085
36.56,34.25,0.085
36.58,34.36,0.085
36.59,34.47,0.085
36.60,34.59,0.085
36.61,34.71,0.085
36.62,34.82,0.085
36.63,34.94,0.085
36.64,35.05,0.085
36.66,35.17,0.085
36.67,35.28,0.086
36.68,35.40,0.086
36.69,35.51,0.086
36.70,35.63,0.086
36.71,35.75,0.086
36.73,35.86,0.086
36.74,35.98,0.086
36.75,36.09,0.086
36.76,36.21,0.086
36.77,36.32,0.086
36.79,36.44,0.086
36.80,36.56,0.086
36.81,36.67,0.086
36.82,36.79,0.086
36.83,36.90,0.086
36.84,37.02,0.086
36.86,37.13,0.086
36.87,37.25,0.086
36.88,37.37,0.086
36.89,37.48,0.086
36.90,37.60,0.086
36.91,37.72,0.086
36.93,37.83,0.086
36.94,37.95,0.086
36.95,38.06,0.086
36.96,38.18,0.086
36.97,38.30,0.086
36.98,38.41,0.086
36.99,38.53,0.086
37.01,38.65,0.086
37.02,38.76,0.086
37.03,38.88,0.087
37.04,39.00,0.087
37.05,39.11,0.087
37.06,39.23,0.087
37.08,39.34,0.087
37.09,39.46,0.087
37.10,39.58,0.087
37.11,39.69,0.087
37.12,39.81,0.087
37.14,39.93,0.087
37.15,40.04,0.087
37.16,40.16,0.087
37.17,40.28,0.087
37.18,40.39,0.087
37.19,40.51,0.087
37.21,40.63,0.087
37.22,40.74,0.087
37.23,40.86,0.087
37.24,40.97,0.087
37.25,41.09,0.087
37.26,41.21,0.087
37.28,41.32,0.087
37.29,41.44,0.087
37.30,41.56,0.087
37.31,41.67,0.087
37.32,41.79,0.087
37.33,41.91,0.087
37.34,42.02,0.087
37.36,42.14,0.087
37.37,42.26,0.087
37.38,42.37,0.087
37.39,42.49,0.087
37.40,42.61,0.087
37.41,42.72,0.087
37.43,42.84,0.087
37.44,42.96,0.087
37.45,43.07,0.087
37.46,43.19,0.087
37.47,43.31,0.087
37.49,43.42,0.087
37.50,43.54,0.087
37.51,43.66,0.087
37.52,43.77,0.087
37.53,43.89,0.087
37.54,44.01,0.087
37.56,44.12,0.087
37.57,44.24,0.087
37.58,44.36,0.087
37.59,44.47,0.087
37.60,44.59,0.087
37.61,44.71,0.087
37.63,44.82,0.087
37.64,44.94,0.087
37.65,45.06,0.087
37.66,45.17,0.087
37.67,45.29,0.087
37.68,45.41,0.087
37.69,45.52,0.087
37.71,45.64,0.087
37.72,45.76,0.087
37.73,45.87,0.087
37.74,45.99,0.087
37.75,46.11,0.087
37.76,46.22,0.087
37.78,46.34,0.087
37.79,46.46,0.087
37.80,46.57,0.087
37.81,46.69,0.087
37.82,46.81,0.087
37.84,46.92,0.087
37.85,47.04,0.087
37.86,47.16,0.087
37.87,47.27,0.087
37.88,47.39,0.087
37.89,47.51,0.087
37.91,47.63,0.087
37.92,47.74,0.087
37.93,47.86,0.087
37.94,47.97,0.087
37.95,48.09,0.087
37.96,48.21,0.087
37.98,48.33,0.087
37.99,48.44,0.087
38.00,48.56,0.087
38.01,48.68,0.087
38.02,48.79,0.087
38.03,48.91,0.087
38.04,49.03,0.087
38.06,49.14,0.087
38.07,49.26,0.087
38.08,49.38,0.087
38.09,49.49,0.087
38.10,49.61,0.087
38.11,49.73,0.087
38.13,49.84,0.087
38.14,49.96,0.087
38.15,50.08,0.087
38.16,50.19,0.087
38.17,50.31,0.087
38.19,50.43,0.087
38.20,50.54,0.087
38.21,50.66,0.087
38.22,50.78,0.087
38.23,50.89,0.087
38.24,51.01,0.087
38.26,51.13,0.087
38.27,51.24,0.087
38.28,51.36,0.087
38.29,51.48,0.087
38.30,51.59,0.087
38.31,51.71,0.087
38.33,51.83,0.087
38.34,51.95,0.087
38.35,52.06,0.087
38.36,52.18,0.087
38.37,52.29,0.087
38.38,52.41,0.087
38.39,52.53,0.087
38.41,52.65,0.087
38.42,52.76,0.087
38.43,52.88,0.087
38.44,53.00,0.087
38.45,53.11,0.087
38.46,53.23,0.087
38.48,53.35,0.087
38.49,53.46,0.087
38.50,53.58,0.087
38.51,53.70,0.087
38.52,53.82,0.087
38.54,53.93,0.087
38.55,54.05,0.087
38.56,54.16,0.087
38.57,54.28,0.087
38.58,54.40,0.087
38.59,54.51,0.087
38.61,54.63,0.087
38.62,54.75,0.087
38.63,54.86,0.087
38.64,54.98,0.087
38.65,55.10,0.087
38.66,55.21,0.087
38.68,55.33,0.087
38.69,55.45,0.087
38.70,55.57,0.087
38.71,55.68,0.087
38.72,55.80,0.087
38.73,55.92,0.087
38.74,56.03,0.087
38.76,56.15,0.087
38.77,56.27,0.087
38.78,56.38,0.087
38.79,56.50,0.087
38.80,56.62,0.087
38.81,56.73,0.087
38.83,56.85,0.087
38.84,56.97,0.087
38.85,57.08,0.087
38.86,57.20,0.087
38.87,57.32,0.087
38.89,57.43,0.087
38.90,57.55,0.087
38.91,57.67,0.087
38.92,57.78,0.087
38.93,57.90,0.087
38.94,58.02,0.087
38.96,58.14,0.087
38.97,58.25,0.087
38.98,58.37,0.087
38.99,58.49,0.087
39.00,58.60,0.087
39.01,58.72,0.087
39.03,58.84,0.087
39.04,58.95,0.087
39.05,59.07,0.087
39.06,59.19,0.087
39.07,59.30,0.087
39.08,59.42,0.087
39.09,59.54,0.087
39.11,59.65,0.087
39.12,59.77,0.087
39.13,59.89,0.087
39.14,60.00,0.087
39.15,60.12,0.087
39.16,60.24,0.087
39.18,60.35,0.087
39.19,60.47,0.087
39.20,60.59,0.087
39.21,60.71,0.087
39.22,60.82,0.087
39.24,60.94,0.087
39.25,61.05,0.087
39.26,61.17,0.087
39.27,61.29,0.087
39.28,61.41,0.087
39.29,61.52,0.087
39.31,61.64,0.087
39.32,61.76,0.087
39.33,61.87,0.087
39.34,61.99,0.087
39.35,62.11,0.087
39.36,62.22,0.087
39.38,62.34,0.087
39.39,62.46,0.087
39.40,62.57,0.087
39.41,62.69,0.087
39.42,62.81,0.087
39.43,62.92,0.087
39.44,63.04,0.087
39.46,63.16,0.087
39.47,63.27,0.087
39.48,63.39,0.087
39.49,63.51,0.087
39.50,63.62,0.087
39.51,63.74,0.087
39.53,63.86,0.087
39.54,63.97,0.087
39.55,64.09,0.087
39.56,64.21,0.087
39.57,64.33,0.087
39.59,64.44,0.087
39.60,64.56,0.087
39.61,64.68,0.087
39.62,64.79,0.087
39.63,64.91,0.087
39.64,65.03,0.087
39.66,65.14,0.087
39.67,65.26,0.087
39.68,65.38,0.087
39.69,65.49,0.087
39.70,65.61,0.087
39.71,65.73,0.087
39.73,65.84,0.087
39.74,65.96,0.087
39.75,66.08,0.087
39.76,66.19,0.087
39.77,66.31,0.087
39.78,66.43,0.087
39.79,66.55,0.087
39.81,66.66,0.087
39.82,66.78,0.087
39.83,66.89,0.087
39.84,67.01,0.087
39.85,67.13,0.087
39.86,67.25,0.087
39.88,67.36,0.087
39.89,67.48,0.087
39.90,67.60,0.087
39.91,67.71,0.087
39.92,67.83,0.087
39.94,67.95,0.087
39.95,68.06,0.087
39.96,68.18,0.087
39.97,68.30,0.087
39.98,68.41,0.087
39.99,68.53,0.087
40.01,68.65,0.087
40.02,68.76,0.087
40.03,68.88,0.087
40.04,69.00,0.087
40.05,69.11,0.087
40.06,69.23,0.087
40.08,69.35,0.087
40.09,69.46,0.087
40.10,69.58,0.087
40.11,69.70,0.087
40.12,69.81,0.087
40.13,69.93,0.087
40.14,70.05,0.087
40.16,70.16,0.087
40.17,70.28,0.087
40.18,70.40,0.087
40.19,70.51,0.087
40.20,70.63,0.087
40.21,70.75,0.087
40.23,70.87,0.087
40.24,70.98,0.087
40.25,71.10,0.087
40.26,71.21,0.087
40.27,71.33,0.087
40.29,71.45,0.087
40.30,71.57,0.087
40.31,71.68,0.087
40.32,71.80,0.087
40.33,71.92,0.087
40.34,72.03,0.087
40.36,72.15,0.087
40.37,72.27,0.087
40.38,72.38,0.087
40.39,72.50,0.087
40.40,72.62,0.087
40.41,72.73,0.087
40.43,72.85,0.087
40.44,72.97,0.087
40.45,73.08,0.087
40.46,73.20,0.087
40.47,73.32,0.087
40.48,73.43,0.087
40.49,73.55,0.087
40.51,73.67,0.087
40.52,73.78,0.087
40.53,73.90,0.087
40.54,74.02,0.087
40.55,74.14,0.087
40.56,74.25,0.087
40.58,74.37,0.087
40.59,74.49,0.087
40.60,74.60,0.087
40.61,74.72,0.087
40.62,74.83,0.088
40.64,74.95,0.088
40.65,75.07,0.088
40.66,75.19,0.088
40.67,75.30,0.088
40.68,75.42,0.088
40.69,75.54,0.088
40.71,75.65,0.088
40.72,75.77,0.088
40.73,75.89,0.088
40.74,76.00,0.088
40.75,76.12,0.088
40.76,76.24,0.088
40.78,76.35,0.088
40.79,76.47,0.088
40.80,76.59,0.088
40.81,76.70,0.088
40.82,76.82,0.088
40.83,76.94,0.088
40.84,77.06,0.088
40.86,77.17,0.088
40.87,77.29,0.088
40.88,77.41,0.088
40.89,77.52,0.088
40.90,77.64,0.088
40.91,77.76,0.088
40.93,77.87,0.088
40.94,77.99,0.088
40.95,78.11,0.088
40.96,78.22,0.088
40.97,78.34,0.088
40.99,78.46,0.088
41.00,78.57,0.088
41.01,78.69,0.088
41.02,78.81,0.088
41.03,78.92,0.088
41.04,79.04,0.088
41.06,79.16,0.088
41.07,79.27,0.088
41.08,79.39,0.088
41.09,79.51,0.088
41.10,79.62,0.088
41.11,79.74,0.088
41.13,79.86,0.088
41.14,79.97,0.088
41.15,80.09,0.088
41.16,80.21,0.088
41.17,80.32,0.088
41.18,80.44,0.088
41.19,80.56,0.088
41.21,80.68,0.088
41.22,80.79,0.088
41.23,80.91,0.088
41.24,81.03,0.088
41.25,81.14,0.088
41.26,81.26,0.088
41.28,81.38,0.088
41.29,81.49,0.088
41.30,81.61,0.088
41.31,81.73,0.088
41.32,81.84,0.088
41.34,81.96,0.088
41.35,82.08,0.088
41.36,82.19,0.088
41.37,82.31,0.088
41.38,82.43,0.088
41.39,82.54,0.088
41.41,82.66,0.088
41.42,82.78,0.088
41.43,82.89,0.088
41.44,83.01,0.088
41.45,83.13,0.088
41.46,83.24,0.088
41.48,83.36,0.088
41.49,83.48,0.088
41.50,83.59,0.088
41.51,83.71,0.088
41.52,83.83,0.088
41.53,83.95,0.088
41.54,84.06,0.088
41.56,84.18,0.088
41.57,84.30,0.088
41.58,84.41,0.088
41.59,84.53,0.088
41.60,84.65,0.088
41.61,84.76,0.088
41.63,84.88,0.088
41.64,85.00,0.088
41.65,85.11,0.088
41.66,85.23,0.088
41.67,85.35,0.088
41.69,85.46,0.088
41.70,85.58,0.088
41.71,85.70,0.088
41.72,85.81,0.088
41.73,85.93,0.088
41.74,86.05,0.088
41.76,86.16,0.088
41.77,86.28,0.088
41.78,86.40,0.088
41.79,86.51,0.088
41.80,86.63,0.088
41.81,86.75,0.088
41.83,86.87,0.088
41.84,86.98,0.088
41.85,87.10,0.088
41.86,87.21,0.088
41.87,87.33,0.088
41.88,87.45,0.088
41.89,87.57,0.088
41.91,87.68,0.088
41.92,87.80,0.088
41.93,87.92,0.088
41.94,88.03,0.088
41.95,88.15,0.088
41.96,88.27,0.088
41.98,88.38,0.088
41.99,88.50,0.088
42.00,88.62,0.088
42.01,88.73,0.088
42.02,88.85,0.088
42.04,88.97,0.088
42.05,89.08,0.088
42.06,89.20,0.088
42.07,89.32,0.088
42.08,89.43,0.088
42.09,89.55,0.088
42.11,89.67,0.088
42.12,89.78,0.088
42.13,89.90,0.088
42.14,90.02,0.088
42.15,90.13,0.088
42.16,90.25,0.088
42.18,90.37,0.089
42.19,90.48,0.089
42.20,90.60,0.089
42.21,90.72,0.089
42.22,90.84,0.089
42.23,90.95,0.089
42.24,91.07,0.089
42.26,91.19,0.089
42.27,91.30,0.089
42.28,91.42,0.089
42.29,91.54,0.089
42.30,91.65,0.089
42.31,91.77,0.089
42.33,91.89,0.089
42.34,92.00,0.089
42.35,92.12,0.089
42.36,92.24,0.089
42.37,92.35,0.089
42.39,92.47,0.089
42.40,92.59,0.089
42.41,92.71,0.089
42.42,92.82,0.089
42.43,92.94,0.089
42.44,93.06,0.089
42.46,93.17,0.089
42.47,93.29,0.089
42.48,93.41,0.089
42.49,93.52,0.089
42.50,93.64,0.089
42.51,93.76,0.089
42.53,93.87,0.089
42.54,93.99,0.089
42.55,94.11,0.089
42.56,94.22,0.089
42.57,94.34,0.089
42.58,94.46,0.089
42.59,94.57,0.089
42.61,94.69,0.089
42.62,94.81,0.089
42.63,94.93,0.089
42.64,95.04,0.089
42.65,95.16,0.089
42.66,95.28,0.089
42.68,95.39,0.089
42.69,95.51,0.089
42.70,95.63,0.089
42.71,95.74,0.089
42.72,95.86,0.089
42.74,95.98,0.089
42.75,96.09,0.089
42.76,96.21,0.089
42.77,96.33,0.089
42.78,96.44,0.089
42.79,96.56,0.089
42.81,96.68,0.089
42.82,96.79,0.089
42.83,96.91,0.089
42.84,97.03,0.089
42.85,97.14,0.089
42.86,97.26,0.090
42.88,97.38,0.090
42.89,97.49,0.090
42.90,97.61,0.090
42.91,97.73,0.090
42.92,97.84,0.090
42.93,97.96,0.090
42.94,98.08,0.090
42.96,98.19,0.090
42.97,98.31,0.090
42.98,98.43,0.090
42.99,98.55,0.090
43.00,98.66,0.090
43.01,98.78,0.090
43.03,98.90,0.090
43.04,99.01,0.090
43.05,99.13,0.090
43.06,99.25,0.090
43.07,99.36,0.090
43.09,99.48,0.090
43.10,99.60,0.090
43.11,99.71,0.090
43.12,99.83,0.090
43.13,99.95,0.090
43.14,100.06,0.090
43.16,100.18,0.090
43.17,100.30,0.090
43.18,100.41,0.090
43.19,100.53,0.090
43.20,100.65,0.090
43.21,100.76,0.090
43.23,100.88,0.090
43.24,101.00,0.090
43.25,101.11,0.090
43.26,101.23,0.090
43.27,101.35,0.090
43.28,101.46,0.090
43.29,101.58,0.090
43.31,101.70,0.090
43.32,101.81,0.090
43.33,101.93,0.090
43.34,102.05,0.090
43.35,102.16,0.090
43.36,102.28,0.090
43.38,102.40,0.090
43.39,102.51,0.090
43.40,102.63,0.090
43.41,102.75,0.090
43.42,102.86,0.090
43.44,102.98,0.090
43.45,103.10,0.090
43.46,103.21,0.090
43.47,103.33,0.090
43.48,103.45,0.090
43.49,103.56,0.090
43.51,103.68,0.090
43.52,103.80,0.090
43.53,103.91,0.090
43.54,104.03,0.090
43.55,104.15,0.090
43.56,104.27,0.090
43.58,104.38,0.090
43.59,104.50,0.090
43.60,104.62,0.090
43.61,104.73,0.090
43.62,104.85,0.090
43.63,104.96,0.090
43.64,105.08,0.091
43.66,105.20,0.091
43.67,105.32,0.091
43.68,105.43,0.091
43.69,105.55,0.091
43.70,105.67,0.091
43.71,105.78,0.091
43.73,105.90,0.091
43.74,106.02,0.091
43.75,106.13,0.091
43.76,106.25,0.091
43.77,106.37,0.091
43.79,106.48,0.091
43.80,106.60,0.091
43.81,106.72,0.091
43.82,106.83,0.091
43.83,106.95,0.091
43.84,107.07,0.091
43.86,107.18,0.091
43.87,107.30,0.091
43.88,107.42,0.091
43.89,107.53,0.091
43.90,107.65,0.091
43.91,107.77,0.091
43.93,107.88,0.091
43.94,108.00,0.091
43.95,108.12,0.091
43.96,108.23,0.091
43.97,108.35,0.091
43.98,108.47,0.091
43.99,108.58,0.091
44.01,108.70,0.091
44.02,108.82,0.091
44.03,108.93,0.091
44.04,109.05,0.091
44.05,109.17,0.091
44.06,109.29,0.091
44.08,109.40,0.091
44.09,109.52,0.091
44.10,109.64,0.091
44.11,109.75,0.091
44.12,109.87,0.091
44.14,109.99,0.091
44.15,110.10,0.091
44.16,110.22,0.091
44.17,110.34,0.091
44.18,110.45,0.091
44.19,110.57,0.091
44.21,110.69,0.091
44.22,110.80,0.091
44.23,110.92,0.091
44.24,111.04,0.091
44.25,111.15,0.091
44.26,111.27,0.091
44.28,111.39,0.091
44.29,111.50,0.091
44.30,111.62,0.091
44.31,111.74,0.091
44.32,111.85,0.091
44.33,111.97,0.091
44.34,112.09,0.092
44.36,112.20,0.092
44.37,112.32,0.092
44.38,112.44,0.092
44.39,112.55,0.092
44.40,112.67,0.092
44.41,112.79,0.092
44.43,112.90,0.092
44.44,113.02,0.092
44.45,113.14,0.092
44.46,113.26,0.092
44.47,113.37,0.092
44.49,113.49,0.092
44.50,113.61,0.092
44.51,113.72,0.092
44.52,113.84,0.092
44.53,113.96,0.092
44.54,114.07,0.092
44.56,114.19,0.092
44.57,114.31,0.092
44.58,114.42,0.092
44.59,114.54,0.092
44.60,114.66,0.092
44.61,114.77,0.092
44.63,114.89,0.092
44.64,115.01,0.092
44.65,115.12,0.092
44.66,115.24,0.092
44.67,115.36,0.092
44.68,115.47,0.092
44.69,115.59,0.092
44.71,115.71,0.092
44.72,115.83,0.092
44.73,115.94,0.092
44.74,116.06,0.092
44.75,116.18,0.092
44.76,116.29,0.092
44.78,116.41,0.092
44.79,116.53,0.092
44.80,116.64,0.092
44.81,116.76,0.092
44.82,116.87,0.092
44.84,116.99,0.092
44.85,117.11,0.092
44.86,117.23,0.092
44.87,117.34,0.092
44.88,117.46,0.092
44.89,117.58,0.092
44.91,117.69,0.092
44.92,117.81,0.092
44.93,117.93,0.092
44.94,118.04,0.092
44.95,118.16,0.092
44.96,118.28,0.092
44.98,118.39,0.092
44.99,118.51,0.092
45.00,118.63,0.092
45.01,118.75,0.092
45.02,118.86,0.092
45.03,118.98,0.092
45.04,119.10,0.092
45.06,119.21,0.092
45.07,119.33,0.092
45.08,119.45,0.092
45.09,119.56,0.093
45.10,119.68,0.093
45.11,119.80,0.093
45.13,119.91,0.093
45.14,120.03,0.093
45.15,120.15,0.093
45.16,120.26,0.093
45.17,120.38,0.093
45.19,120.50,0.093
45.20,120.61,0.093
45.21,120.73,0.093
45.22,120.85,0.093
45.23,120.96,0.093
45.24,121.08,0.093
45.26,121.20,0.093
45.27,121.32,0.093
45.28,121.43,0.093
45.29,121.55,0.093
45.30,121.67,0.093
45.31,121.78,0.093
45.33,121.90,0.093
45.34,122.01,0.093
45.35,122.13,0.093
45.36,122.25,0.093
45.37,122.36,0.093
45.38,122.48,0.093
45.39,122.60,0.093
45.41,122.72,0.093
45.42,122.83,0.093
45.43,122.95,0.093
45.44,123.07,0.093
45.45,123.18,0.093
45.46,123.30,0.093
45.48,123.42,0.093
45.49,123.53,0.093
45.50,123.65,0.093
45.51,123.77,0.093
45.52,123.88,0.093
45.54,124.00,0.093
45.55,124.12,0.092
45.56,124.23,0.092
45.57,124.35,0.093
45.58,124.47,0.093
45.59,124.58,0.093
45.61,124.70,0.093
45.62,124.82,0.093
45.63,124.93,0.093
45.64,125.05,0.093
45.65,125.17,0.093
45.66,125.28,0.093
45.68,125.40,0.093
45.69,125.52,0.093
45.70,125.63,0.093
45.71,125.75,0.093
45.72,125.87,0.093
45.73,125.98,0.093
45.74,126.10,0.093
45.76,126.22,0.093
45.77,126.33,0.093
45.78,126.45,0.093
45.79,126.57,0.093
45.80,126.68,0.093
45.81,126.80,0.093
45.83,126.92,0.093
45.84,127.03,0.093
45.85,127.15,0.093
45.86,127.27,0.093
45.87,127.38,0.093
45.89,127.50,0.093
45.90,127.62,0.093
45.91,127.73,0.093
45.92,127.85,0.093
45.93,127.97,0.093
45.94,128.08,0.093
45.96,128.20,0.093
45.97,128.32,0.094
45.98,128.44,0.094
45.99,128.55,0.094
46.00,128.67,0.094
46.01,128.79,0.094
46.03,128.90,0.094
46.04,129.02,0.094
46.05,129.14,0.094
46.06,129.25,0.094
46.07,129.37,0.094
46.08,129.49,0.094
46.09,129.60,0.094
46.11,129.72,0.094
46.12,129.84,0.094
46.13,129.95,0.094
46.14,130.07,0.094
46.15,130.19,0.094
46.16,130.30,0.094
46.18,130.42,0.094
46.19,130.54,0.094
46.20,130.65,0.094
46.21,130.77,0.094
46.22,130.89,0.094
46.24,131.00,0.094
46.25,131.12,0.094
46.26,131.24,0.094
46.27,131.35,0.094
46.28,131.47,0.094
46.29,131.59,0.094
46.31,131.70,0.094
46.32,131.82,0.094
46.33,131.94,0.094
46.34,132.05,0.094
46.35,132.17,0.094
46.36,132.29,0.094
46.38,132.40,0.094
46.39,132.52,0.094
46.40,132.64,0.094
46.41,132.75,0.094
46.42,132.87,0.094
46.43,132.99,0.094
46.44,133.11,0.094
46.46,133.22,0.094
46.47,133.34,0.094
46.48,133.46,0.094
46.49,133.57,0.094
46.50,133.69,0.094
46.51,133.81,0.094
46.53,133.92,0.094
46.54,134.04,0.094
46.55,134.16,0.094
46.56,134.27,0.094
46.57,134.39,0.094
46.59,134.51,0.094
46.60,134.62,0.094
46.61,134.74,0.094
46.62,134.86,0.094
46.63,134.97,0.094
46.64,135.09,0.094
46.66,135.21,0.094
46.67,135.32,0.094
46.68,135.44,0.094
46.69,135.56,0.094
46.70,135.67,0.094
46.71,135.79,0.094
46.73,135.91,0.095
46.74,136.02,0.095
46.75,136.14,0.095
46.76,136.26,0.095
46.77,136.37,0.095
46.78,136.49,0.095
46.79,136.61,0.095
46.81,136.72,0.095
46.82,136.84,0.095
46.83,136.96,0.095
46.84,137.07,0.095
46.85,137.19,0.095
46.86,137.31,0.095
46.88,137.43,0.095
46.89,137.54,0.095
46.90,137.66,0.095
46.91,137.78,0.095
46.92,137.89,0.095
46.94,138.01,0.095
46.95,138.13,0.095
46.96,138.24,0.095
46.97,138.36,0.095
46.98,138.48,0.095
46.99,138.59,0.095
47.01,138.71,0.095
47.02,138.83,0.095
47.03,138.94,0.095
47.04,139.06,0.095
47.05,139.18,0.095
47.06,139.29,0.095
47.08,139.41,0.095
47.09,139.53,0.095
47.10,139.64,0.095
47.11,139.76,0.095
47.12,139.88,0.095
47.13,139.99,0.095
47.14,140.11,0.095
47.16,140.23,0.095
47.17,140.34,0.095
47.18,140.46,0.095
47.19,140.58,0.095
47.20,140.69,0.095
47.21,140.81,0.095
47.23,140.93,0.095
47.24,141.04,0.095
47.25,141.16,0.095
47.26,141.28,0.095
47.27,141.39,0.095
47.29,141.51,0.095
47.30,141.63,0.095
47.31,141.74,0.096
47.32,141.86,0.096
47.33,141.98,0.096
47.34,142.10,0.096
47.36,142.21,0.096
47.37,142.33,0.096
47.38,142.45,0.096
47.39,142.56,0.096
47.40,142.68,0.096
47.41,142.80,0.096
47.43,142.91,0.096
47.44,143.03,0.096
47.45,143.15,0.096
47.46,143.26,0.096
47.47,143.38,0.096
47.48,143.50,0.096
47.49,143.61,0.096
47.51,143.73,0.096
47.52,143.85,0.096
47.53,143.96,0.096
47.54,144.08,0.096
47.55,144.20,0.096
47.56,144.31,0.096
47.58,144.43,0.096
47.59,144.55,0.096
47.60,144.66,0.096
47.61,144.78,0.096
47.62,144.90,0.096
47.64,145.01,0.096
47.65,145.13,0.096
47.66,145.25,0.096
47.67,145.36,0.096
47.68,145.48,0.096
47.69,145.60,0.096
47.71,145.71,0.096
47.72,145.83,0.096
47.73,145.95,0.096
47.74,146.06,0.096
47.75,146.18,0.096
47.76,146.30,0.096
47.78,146.41,0.096
47.79,146.53,0.096
47.80,146.65,0.096
47.81,146.76,0.096
47.82,146.88,0.096
47.83,147.00,0.096
47.84,147.11,0.096
47.86,147.23,0.097
47.87,147.35,0.097
47.88,147.47,0.097
47.89,147.58,0.097
47.90,147.70,0.097
47.91,147.81,0.097
47.93,147.93,0.097
47.94,148.05,0.097
47.95,148.16,0.097
47.96,148.28,0.097
47.97,148.40,0.097
47.99,148.52,0.097
48.00,148.63,0.097
48.01,148.75,0.097
48.02,148.87,0.097
48.03,148.98,0.097
48.04,149.10,0.097
48.06,149.22,0.097
48.07,149.33,0.097
48.08,149.45,0.097
48.09,149.57,0.097
48.10,149.68,0.097
48.11,149.80,0.097
48.13,149.92,0.097
48.14,150.03,0.097
48.15,150.15,0.097
48.16,150.27,0.097
48.17,150.38,0.097
48.18,150.50,0.097
48.19,150.62,0.097
48.21,150.73,0.097
48.22,150.85,0.097
48.23,150.97,0.097
48.24,151.08,0.097
48.25,151.20,0.097
48.26,151.32,0.097
48.28,151.43,0.097
48.29,151.55,0.097
48.30,151.67,0.097
48.31,151.78,0.097
48.32,151.90,0.097
48.34,152.02,0.097
48.35,152.13,0.097
48.36,152.25,0.097
48.37,152.37,0.097
48.38,152.48,0.097
48.39,152.60,0.097
48.41,152.72,0.098
48.42,152.83,0.098
48.43,152.95,0.098
48.44,153.07,0.098
48.45,153.19,0.098
48.46,153.30,0.098
48.48,153.42,0.098
48.49,153.53,0.098
48.50,153.65,0.098
48.51,153.77,0.098
48.52,153.89,0.098
48.53,154.00,0.098
48.54,154.12,0.098
48.56,154.24,0.098
48.57,154.35,0.098
48.58,154.47,0.098
48.59,154.59,0.098
48.60,154.70,0.098
48.61,154.82,0.098
48.63,154.94,0.098
48.64,155.05,0.098
48.65,155.17,0.098
48.66,155.29,0.098
48.67,155.40,0.098
48.69,155.52,0.098
48.70,155.64,0.098
48.71,155.75,0.098
48.72,155.87,0.098
48.73,155.99,0.098
48.74,156.10,0.098
48.76,156.22,0.098
48.77,156.34,0.099
48.78,156.45,0.103
48.79,156.57,0.123
48.80,156.68,0.220
48.81,156.77,0.393
48.83,156.84,0.563
48.84,156.90,0.711
48.85,156.96,0.844
48.86,157.01,0.970
48.87,157.07,1.090
48.88,157.12,1.207
48.89,157.17,1.321
48.91,157.22,1.435
48.92,157.27,1.555
48.93,157.32,1.675
48.94,157.37,1.772
48.95,157.43,1.843
48.96,157.48,1.939
48.98,157.54,2.006
48.99,157.61,1.996
49.00,157.70,1.939
49.01,157.80,1.951
49.02,157.89,1.955
49.04,157.99,1.967
49.05,158.10,1.979
49.06,158.20,1.958
49.07,158.32,1.824
49.08,158.48,1.436
49.09,158.67,1.240
49.11,158.85,1.105
49.12,159.04,0.982
49.13,159.24,0.657
49.14,159.46,0.480
49.15,159.67,0.414
49.16,159.86,0.367
49.18,160.04,0.327
49.19,160.21,0.294
49.20,160.38,0.266
49.21,160.53,0.241
49.22,160.69,0.220
49.23,160.83,0.203
49.24,160.98,0.187
49.26,161.11,0.175
49.27,161.25,0.164
49.28,161.38,0.154
49.29,161.51,0.146
49.30,161.64,0.139
49.31,161.77,0.134
49.33,161.89,0.128
49.34,162.02,0.124
49.35,162.14,0.121
49.36,162.26,0.117
49.37,162.38,0.115
49.39,162.50,0.112
49.40,162.62,0.111
49.41,162.74,0.108
49.42,162.86,0.108
49.43,162.98,0.107
49.44,163.10,0.105
49.46,163.22,0.105
49.47,163.33,0.104
49.48,163.45,0.104
49.49,163.57,0.103
49.50,163.69,0.102
49.51,163.81,0.102
49.53,163.92,0.102
49.54,164.04,0.101
49.55,164.16,0.101
49.56,164.27,0.101
49.57,164.39,0.101
49.58,164.51,0.101
49.59,164.63,0.101
49.61,164.74,0.101
49.62,164.86,0.101
49.63,164.98,0.101
49.64,165.09,0.101
49.65,165.21,0.100
49.66,165.33,0.100
49.68,165.44,0.100
49.69,165.56,0.100
49.70,165.68,0.100
49.71,165.80,0.100
49.72,165.91,0.100
49.74,166.03,0.100
49.75,166.15,0.100
49.76,166.26,0.100
49.77,166.38,0.100
49.78,166.50,0.100
49.79,166.61,0.100
49.81,166.73,0.100
49.82,166.85,0.100
49.83,166.96,0.100
49.84,167.08,0.100
49.85,167.20,0.100
49.86,167.31,0.100
49.88,167.43,0.100
49.89,167.55,0.100
49.90,167.66,0.100
49.91,167.78,0.100
49.92,167.90,0.100
49.93,168.01,0.100
49.94,168.13,0.100
49.96,168.25,0.100
49.97,168.37,0.100
49.98,168.48,0.100
49.99,168.60,0.100
50.00,168.71,0.100
50.01,168.83,0.100
50.03,168.95,0.100
50.04,169.06,0.100
50.05,169.18,0.100
50.06,169.30,0.100
50.07,169.41,0.100
50.09,169.53,0.100
50.10,169.65,0.100
50.11,169.76,0.100
50.12,169.88,0.100
50.13,170.00,0.100
50.14,170.11,0.100
50.16,170.23,0.100
50.17,170.35,0.100
50.18,170.46,0.100
50.19,170.58,0.100
50.20,170.70,0.100
50.21,170.81,0.100
50.23,170.93,0.100
50.24,171.05,0.100
50.25,171.16,0.100
50.26,171.28,0.100
50.27,171.40,0.100
50.28,171.51,0.100
50.29,171.63,0.100
50.31,171.75,0.100
50.32,171.87,0.100
50.33,171.98,0.100
50.34,172.10,0.100
50.35,172.21,0.100
50.36,172.33,0.100
50.38,172.45,0.100
50.39,172.57,0.100
50.40,172.68,0.100
50.41,172.80,0.100
50.42,172.92,0.100
50.44,173.03,0.100
50.45,173.15,0.100
50.46,173.27,0.100
50.47,173.38,0.100
50.48,173.50,0.100
50.49,173.62,0.100
50.51,173.73,0.100
50.52,173.85,0.100
50.53,173.97,0.100
50.54,174.08,0.100
50.55,174.20,0.100
50.56,174.32,0.100
50.58,174.43,0.100
50.59,174.55,0.100
50.60,174.67,0.100
50.61,174.78,0.100
50.62,174.90,0.100
50.63,175.02,0.100
50.64,175.13,0.100
50.66,175.25,0.100
50.67,175.37,0.100
50.68,175.48,0.100
50.69,175.60,0.100
50.70,175.72,0.100
50.71,175.83,0.100
50.73,175.95,0.100
50.74,176.07,0.100
50.75,176.19,0.100
50.76,176.30,0.100
50.77,176.42,0.100
50.79,176.54,0.100
50.80,176.65,0.101
50.81,176.77,0.101
50.82,176.89,0.101
50.83,177.00,0.101
50.84,177.12,0.101
50.86,177.24,0.101
50.87,177.35,0.101
50.88,177.47,0.101
50.89,177.59,0.101
50.90,177.70,0.101
50.91,177.82,0.101
50.93,177.94,0.101
50.94,178.05,0.101
50.95,178.17,0.101
50.96,178.29,0.101
50.97,178.40,0.101
50.98,178.52,0.101
50.99,178.64,0.101
51.01,178.75,0.101
51.02,178.87,0.101
51.03,178.99,0.101
51.04,179.10,0.101
51.05,179.22,0.101
51.06,179.34,0.101
51.08,179.45,0.101
51.09,179.57,0.101
51.10,179.69,0.101
51.11,179.80,0.101
51.12,179.92,0.101
51.14,180.04,0.101
51.15,180.15,0.101
51.16,180.27,0.101
51.17,180.39,0.101
51.18,180.50,0.101
51.19,180.62,0.101
51.21,180.74,0.101
51.22,180.85,0.101
51.23,180.97,0.101
51.24,181.09,0.101
51.25,181.20,0.101
51.26,181.32,0.101
51.28,181.44,0.101
51.29,181.55,0.101
51.30,181.67,0.101
51.31,181.79,0.101
51.32,181.90,0.101
51.33,182.02,0.101
51.34,182.14,0.101
51.36,182.25,0.101
51.37,182.37,0.101
51.38,182.49,0.101
51.39,182.60,0.101
51.40,182.72,0.101
51.41,182.84,0.101
51.43,182.95,0.101
51.44,183.07,0.101
51.45,183.19,0.101
51.46,183.30,0.101
51.47,183.42,0.102
51.49,183.54,0.102
51.50,183.66,0.102
51.51,183.77,0.102
51.52,183.89,0.102
51.53,184.01,0.102
51.54,184.12,0.102
51.56,184.24,0.102
51.57,184.35,0.102
51.58,184.47,0.102
51.59,184.59,0.102
51.60,184.71,0.102
51.61,184.82,0.102
51.63,184.94,0.102
51.64,185.06,0.102
51.65,185.17,0.102
51.66,185.29,0.102
51.67,185.41,0.102
51.68,185.52,0.102
51.69,185.64,0.102
51.71,185.76,0.102
51.72,185.87,0.102
51.73,185.99,0.102
51.74,186.11,0.102
51.75,186.22,0.102
51.76,186.34,0.102
51.78,186.46,0.102
51.79,186.57,0.102
51.80,186.69,0.102
51.81,186.81,0.102
51.82,186.92,0.102
51.84,187.04,0.102
51.85,187.16,0.102
51.86,187.27,0.102
51.87,187.39,0.102
51.88,187.51,0.102
51.89,187.62,0.102
51.91,187.74,0.102
51.92,187.86,0.102
51.93,187.97,0.102
51.94,188.09,0.102
51.95,188.21,0.102
51.96,188.32,0.102
51.98,188.44,0.102
51.99,188.56,0.102
52.00,188.67,0.102
52.01,188.79,0.102
52.02,188.91,0.102
52.03,189.03,0.102
52.04,189.14,0.102
52.06,189.26,0.102
52.07,189.37,0.102
52.08,189.49,0.102
52.09,189.61,0.103
52.10,189.73,0.103
52.11,189.84,0.103
52.13,189.96,0.103
52.14,190.07,0.103
52.15,190.19,0.103
52.16,190.31,0.103
52.17,190.43,0.103
52.19,190.54,0.103
52.20,190.66,0.103
52.21,190.78,0.103
52.22,190.89,0.103
52.23,191.01,0.103
52.24,191.13,0.103
52.26,191.24,0.103
52.27,191.36,0.103
52.28,191.48,0.103
52.29,191.59,0.103
52.30,191.71,0.103
52.31,191.83,0.103
52.33,191.94,0.103
52.34,192.06,0.103
52.35,192.18,0.103
52.36,192.30,0.103
52.37,192.41,0.103
52.38,192.53,0.103
52.39,192.64,0.103
52.41,192.76,0.103
52.42,192.88,0.103
52.43,192.99,0.103
52.44,193.11,0.103
52.45,193.23,0.103
52.46,193.35,0.103
52.48,193.46,0.103
52.49,193.58,0.103
52.50,193.70,0.103
52.51,193.81,0.103
52.52,193.93,0.103
52.54,194.05,0.103
52.55,194.16,0.103
52.56,194.28,0.103
52.57,194.40,0.103
52.58,194.51,0.103
52.59,194.63,0.103
52.61,194.75,0.104
52.62,194.86,0.104
52.63,194.98,0.104
52.64,195.10,0.104
52.65,195.21,0.104
52.66,195.33,0.104
52.68,195.45,0.104
52.69,195.56,0.104
52.70,195.68,0.104
52.71,195.80,0.104
52.72,195.91,0.104
52.73,196.03,0.104
52.74,196.15,0.104
52.76,196.26,0.104
52.77,196.38,0.104
52.78,196.50,0.104
52.79,196.61,0.104
52.80,196.73,0.104
52.81,196.85,0.104
52.83,196.96,0.104
52.84,197.08,0.104
52.85,197.20,0.104
52.86,197.31,0.104
52.87,197.43,0.104
52.89,197.55,0.104
52.90,197.66,0.104
52.91,197.78,0.104
52.92,197.90,0.104
52.93,198.01,0.104
52.94,198.13,0.104

[step]
Ramp 10.00 °C/min to 30.00 °C
Time,Temperature,Heat Flow (Normalized)
min,°C,W/g
54.00,200.09,-0.006
54.01,200.09,-0.006
54.03,200.09,-0.006
54.04,200.09,-0.006
54.05,200.09,-0.007
54.06,200.08,-0.014
54.07,200.06,-0.023
54.09,200.04,-0.032
54.10,200.02,-0.042
54.11,199.98,-0.053
54.12,199.93,-0.064
54.13,199.88,-0.073
54.14,199.81,-0.082
54.16,199.74,-0.089
54.17,199.66,-0.094
54.18,199.57,-0.098
54.19,199.48,-0.101
54.20,199.39,-0.103
54.21,199.29,-0.105
54.23,199.19,-0.107
54.24,199.08,-0.107
54.25,198.98,-0.107
54.26,198.87,-0.109
54.27,198.76,-0.109
54.28,198.66,-0.110
54.29,198.55,-0.110
54.31,198.44,-0.111
54.32,198.32,-0.111
54.33,198.21,-0.111
54.34,198.10,-0.112
54.35,197.99,-0.112
54.36,197.87,-0.112
54.38,197.76,-0.112
54.39,197.65,-0.113
54.40,197.53,-0.113
54.41,197.42,-0.113
54.42,197.31,-0.113
54.44,197.19,-0.113
54.45,197.08,-0.113
54.46,196.96,-0.114
54.47,196.85,-0.114
54.48,196.73,-0.114
54.49,196.62,-0.114
54.51,196.50,-0.114
54.52,196.39,-0.114
54.53,196.27,-0.114
54.54,196.16,-0.114
54.55,196.04,-0.114
54.56,195.93,-0.114
54.58,195.81,-0.114
54.59,195.70,-0.115
54.60,195.58,-0.115
54.61,195.47,-0.115
54.62,195.35,-0.115
54.63,195.23,-0.115
54.64,195.12,-0.115
54.66,195.00,-0.115
54.67,194.89,-0.115
54.68,194.77,-0.115
54.69,194.66,-0.115
54.70,194.54,-0.115
54.71,194.43,-0.115
54.73,194.31,-0.115
54.74,194.19,-0.115
54.75,194.08,-0.116
54.76,193.96,-0.116
54.77,193.85,-0.116
54.79,193.73,-0.116
54.80,193.62,-0.116
54.81,193.50,-0.116
54.82,193.38,-0.116
54.83,193.27,-0.116
54.84,193.15,-0.116
54.86,193.04,-0.116
54.87,192.92,-0.116
54.88,192.80,-0.116
54.89,192.69,-0.116
54.90,192.57,-0.116
54.91,192.46,-0.116
54.93,192.34,-0.116
54.94,192.22,-0.116
54.95,192.11,-0.116
54.96,191.99,-0.116
54.97,191.88,-0.116
54.98,191.76,-0.116
54.99,191.64,-0.116
55.01,191.53,-0.116
55.02,191.41,-0.116
55.03,191.30,-0.116
55.04,191.18,-0.116
55.05,191.06,-0.116
55.06,190.95,-0.116
55.08,190.83,-0.116
55.09,190.72,-0.116
55.10,190.60,-0.116
55.11,190.48,-0.116
55.12,190.37,-0.116
55.14,190.25,-0.116
55.15,190.14,-0.116
55.16,190.02,-0.116
55.17,189.90,-0.116
55.18,189.79,-0.116
55.19,189.67,-0.116
55.21,189.55,-0.116
55.22,189.44,-0.116
55.23,189.32,-0.116
55.24,189.21,-0.116
55.25,189.09,-0.116
55.26,188.97,-0.117
55.28,188.86,-0.117
55.29,188.74,-0.117
55.30,188.62,-0.117
55.31,188.51,-0.117
55.32,188.39,-0.117
55.33,188.27,-0.117
55.34,188.16,-0.117
55.36,188.04,-0.116
55.37,187.93,-0.116
55.38,187.81,-0.117
55.39,187.69,-0.116
55.40,187.58,-0.117
55.41,187.46,-0.117
55.43,187.34,-0.117
55.44,187.23,-0.117
55.45,187.11,-0.117
55.46,186.99,-0.117
55.47,186.88,-0.117
55.49,186.76,-0.117
55.50,186.65,-0.117
55.51,186.53,-0.117
55.52,186.41,-0.116
55.53,186.30,-0.117
55.54,186.18,-0.117
55.56,186.06,-0.116
55.57,185.95,-0.116
55.58,185.83,-0.116
55.59,185.71,-0.116
55.60,185.60,-0.116
55.61,185.48,-0.116
55.63,185.37,-0.116
55.64,185.25,-0.116
55.65,185.13,-0.116
55.66,185.02,-0.116
55.67,184.90,-0.116
55.68,184.78,-0.116
55.69,184.67,-0.116
55.71,184.55,-0.116
55.72,184.43,-0.116
55.73,184.32,-0.116
55.74,184.20,-0.116
55.75,184.08,-0.116
55.76,183.97,-0.116
55.78,183.85,-0.116
55.79,183.73,-0.116
55.80,183.62,-0.116
55.81,183.50,-0.116
55.82,183.38,-0.116
55.84,183.27,-0.116
55.85,183.15,-0.116
55.86,183.04,-0.116
55.87,182.92,-0.116
55.88,182.80,-0.116
55.89,182.69,-0.116
55.91,182.57,-0.116
55.92,182.45,-0.116
55.93,182.34,-0.116
55.94,182.22,-0.116
55.95,182.10,-0.116
55.96,181.99,-0.116
55.98,181.87,-0.116
55.99,181.75,-0.116
56.00,181.64,-0.116
56.01,181.52,-0.116
56.02,181.41,-0.116
56.03,181.29,-0.116
56.04,181.17,-0.116
56.06,181.06,-0.116
56.07,180.94,-0.116
56.08,180.82,-0.116
56.09,180.71,-0.116
56.10,180.59,-0.116
56.11,180.47,-0.116
56.13,180.36,-0.116
56.14,180.24,-0.116
56.15,180.12,-0.116
56.16,180.01,-0.116
56.17,179.89,-0.116
56.19,179.77,-0.116
56.20,179.66,-0.116
56.21,179.54,-0.116
56.22,179.42,-0.116
56.23,179.31,-0.116
56.24,179.19,-0.116
56.26,179.07,-0.116
56.27,178.96,-0.116
56.28,178.84,-0.116
56.29,178.73,-0.116
56.30,178.61,-0.116
56.31,178.49,-0.116
56.33,178.38,-0.116
56.34,178.26,-0.116
56.35,178.14,-0.116
56.36,178.03,-0.116
56.37,177.91,-0.116
56.38,177.79,-0.116
56.39,177.68,-0.116
56.41,177.56,-0.116
56.42,177.44,-0.116
56.43,177.33,-0.116
56.44,177.21,-0.116
56.45,177.09,-0.116
56.46,176.98,-0.116
56.48,176.86,-0.116
56.49,176.74,-0.116
56.50,176.63,-0.116
56.51,176.51,-0.116
56.52,176.39,-0.116
56.54,176.28,-0.116
56.55,176.16,-0.116
56.56,176.04,-0.116
56.57,175.93,-0.116
56.58,175.81,-0.116
56.59,175.69,-0.116
56.61,175.58,-0.116
56.62,175.46,-0.116
56.63,175.34,-0.116
56.64,175.23,-0.116
56.65,175.11,-0.116
56.66,175.00,-0.116
56.68,174.88,-0.116
56.69,174.76,-0.116
56.70,174.65,-0.116
56.71,174.53,-0.116
56.72,174.41,-0.116
56.73,174.30,-0.116
56.74,174.18,-0.116
56.76,174.06,-0.116
56.77,173.95,-0.116
56.78,173.83,-0.116
56.79,173.71,-0.116
56.80,173.60,-0.116
56.81,173.48,-0.116
56.83,173.36,-0.116
56.84,173.25,-0.116
56.85,173.13,-0.116
56.86,173.02,-0.116
56.87,172.90,-0.116
56.89,172.78,-0.116
56.90,172.67,-0.116
56.91,172.55,-0.116
56.92,172.43,-0.116
56.93,172.32,-0.116
56.94,172.20,-0.116
56.96,172.08,-0.116
56.97,171.97,-0.116
56.98,171.85,-0.116
56.99,171.73,-0.116
57.00,171.62,-0.116
57.01,171.50,-0.116
57.03,171.38,-0.116
57.04,171.27,-0.116
57.05,171.15,-0.116
57.06,171.03,-0.116
57.07,170.92,-0.116
57.08,170.80,-0.116
57.09,170.68,-0.116
57.11,170.57,-0.116
57.12,170.45,-0.116
57.13,170.33,-0.116
57.14,170.22,-0.116
57.15,170.10,-0.116
57.16,169.98,-0.116
57.18,169.87,-0.116
57.19,169.75,-0.116
57.20,169.64,-0.116
57.21,169.52,-0.116
57.22,169.40,-0.116
57.24,169.29,-0.116
57.25,169.17,-0.116
57.26,169.05,-0.116
57.27,168.94,-0.116
57.28,168.82,-0.116
57.29,168.70,-0.116
57.31,168.59,-0.116
57.32,168.47,-0.116
57.33,168.35,-0.116
57.34,168.24,-0.116
57.35,168.12,-0.116
57.36,168.00,-0.116
57.38,167.89,-0.116
57.39,167.77,-0.116
57.40,167.65,-0.116
57.41,167.54,-0.116
57.42,167.42,-0.116
57.43,167.30,-0.116
57.44,167.19,-0.116
57.46,167.07,-0.116
57.47,166.95,-0.116
57.48,166.84,-0.116
57.49,166.72,-0.116
57.50,166.60,-0.116
57.51,166.49,-0.116
57.53,166.37,-0.116
57.54,166.25,-0.116
57.55,166.14,-0.116
57.56,166.02,-0.116
57.57,165.91,-0.116
57.59,165.79,-0.116
57.60,165.67,-0.115
57.61,165.56,-0.115
57.62,165.44,-0.115
57.63,165.32,-0.115
57.64,165.21,-0.115
57.66,165.09,-0.115
57.67,164.97,-0.115
57.68,164.86,-0.115
57.69,164.74,-0.115
57.70,164.62,-0.115
57.71,164.51,-0.115
57.73,164.39,-0.115
57.74,164.27,-0.115
57.75,164.16,-0.115
57.76,164.04,-0.115
57.77,163.93,-0.115
57.78,163.81,-0.115
57.79,163.69,-0.115
57.81,163.57,-0.115
57.82,163.46,-0.115
57.83,163.34,-0.115
57.84,163.22,-0.115
57.85,163.11,-0.115
57.86,162.99,-0.115
57.88,162.87,-0.115
57.89,162.76,-0.115
57.90,162.64,-0.115
57.91,162.53,-0.115
57.92,162.41,-0.115
57.94,162.29,-0.115
57.95,162.17,-0.115
57.96,162.06,-0.115
57.97,161.94,-0.115
57.98,161.83,-0.115
57.99,161.71,-0.115
58.01,161.59,-0.115
58.02,161.47,-0.115
58.03,161.36,-0.115
58.04,161.24,-0.115
58.05,161.13,-0.115
58.06,161.01,-0.115
58.08,160.89,-0.115
58.09,160.78,-0.115
58.10,160.66,-0.115
58.11,160.54,-0.115
58.12,160.43,-0.115
58.13,160.31,-0.115
58.14,160.19,-0.115
58.16,160.08,-0.115
58.17,159.96,-0.115
58.18,159.84,-0.115
58.19,159.73,-0.115
58.20,159.61,-0.115
58.21,159.50,-0.115
58.23,159.38,-0.115
58.24,159.26,-0.115
58.25,159.15,-0.115
58.26,159.03,-0.115
58.27,158.91,-0.115
58.29,158.80,-0.115
58.30,158.68,-0.115
58.31,158.56,-0.115
58.32,158.45,-0.115
58.33,158.33,-0.115
58.34,158.21,-0.115
58.36,158.10,-0.115
58.37,157.98,-0.115
58.38,157.86,-0.115
58.39,157.75,-0.115
58.40,157.63,-0.115
58.41,157.51,-0.115
58.43,157.40,-0.115
58.44,157.28,-0.115
58.45,157.16,-0.115
58.46,157.05,-0.115
58.47,156.93,-0.115
58.48,156.81,-0.115
58.49,156.70,-0.115
58.51,156.58,-0.115
58.52,156.46,-0.115
58.53,156.35,-0.115
58.54,156.23,-0.115
58.55,156.11,-0.115
58.56,156.00,-0.115
58.58,155.88,-0.115
58.59,155.77,-0.115
58.60,155.65,-0.115
58.61,155.53,-0.115
58.62,155.41,-0.115
58.64,155.30,-0.115
58.65,155.18,-0.115
58.66,155.06,-0.115
58.67,154.95,-0.115
58.68,154.83,-0.115
58.69,154.72,-0.115
58.71,154.60,-0.115
58.72,154.49,-0.332
58.73,154.45,-1.237
58.74,154.48,-1.965
58.75,154.56,-2.836
58.76,154.75,-4.256
58.78,154.93,-4.080
58.79,155.01,-3.661
58.80,155.02,-3.305
58.81,154.96,-2.781
58.82,154.85,-2.572
58.83,154.73,-2.543
58.84,154.62,-2.509
58.86,154.49,-2.306
58.87,154.32,-1.787
58.88,154.12,-1.534
58.89,153.92,-1.417
58.90,153.72,-1.142
58.91,153.48,-0.511
58.93,153.22,-0.366
58.94,152.98,-0.320
58.95,152.76,-0.289
58.96,152.56,-0.264
58.97,152.36,-0.243
58.99,152.18,-0.225
59.00,152.01,-0.209
59.01,151.85,-0.196
59.02,151.69,-0.184
59.03,151.54,-0.175
59.04,151.39,-0.166
59.06,151.25,-0.159
59.07,151.11,-0.153
59.08,150.98,-0.147
59.09,150.85,-0.143
59.10,150.72,-0.138
59.11,150.59,-0.136
59.13,150.46,-0.132
59.14,150.34,-0.130
59.15,150.21,-0.128
59.16,150.09,-0.127
59.17,149.97,-0.124
59.18,149.85,-0.124
59.19,149.73,-0.123
59.21,149.61,-0.122
59.22,149.49,-0.120
59.23,149.37,-0.120
59.24,149.25,-0.120
59.25,149.13,-0.119
59.26,149.01,-0.119
59.28,148.90,-0.119
59.29,148.78,-0.119
59.30,148.66,-0.118
59.31,148.54,-0.117
59.32,148.43,-0.117
59.34,148.31,-0.117
59.35,148.19,-0.117
59.36,148.07,-0.117
59.37,147.96,-0.117
59.38,147.84,-0.117
59.39,147.72,-0.117
59.41,147.61,-0.117
59.42,147.49,-0.116
59.43,147.37,-0.116
59.44,147.26,-0.116
59.45,147.14,-0.116
59.46,147.02,-0.116
59.48,146.91,-0.116
59.49,146.79,-0.116
59.50,146.67,-0.116
59.51,146.56,-0.116
59.52,146.44,-0.116
59.53,146.32,-0.116
59.54,146.21,-0.116
59.56,146.09,-0.116
59.57,145.97,-0.116
59.58,145.86,-0.116
59.59,145.74,-0.116
59.60,145.62,-0.116
59.61,145.51,-0.116
59.63,145.39,-0.116
59.64,145.27,-0.116
59.65,145.16,-0.116
59.66,145.04,-0.116
59.67,144.92,-0.116
59.69,144.81,-0.116
59.70,144.69,-0.115
59.71,144.57,-0.115
59.72,144.46,-0.115
59.73,144.34,-0.115
59.74,144.23,-0.115
59.76,144.11,-0.115
59.77,143.99,-0.115
59.78,143.88,-0.115
59.79,143.76,-0.115
59.80,143.64,-0.115
59.81,143.53,-0.115
59.83,143.41,-0.115
59.84,143.29,-0.115
59.85,143.18,-0.115
59.86,143.06,-0.115
59.87,142.94,-0.115
59.88,142.83,-0.115
59.89,142.71,-0.115
59.91,142.59,-0.115
59.92,142.48,-0.115
59.93,142.36,-0.115
59.94,142.24,-0.115
59.95,142.13,-0.115
59.96,142.01,-0.115
59.98,141.90,-0.115
59.99,141.78,-0.115
60.00,141.66,-0.115
60.01,141.55,-0.115
60.02,141.43,-0.115
60.04,141.31,-0.115
60.05,141.20,-0.115
60.06,141.08,-0.115
60.07,140.96,-0.115
60.08,140.85,-0.115
60.09,140.73,-0.115
60.11,140.61,-0.115
60.12,140.50,-0.115
60.13,140.38,-0.115
60.14,140.26,-0.115
60.15,140.15,-0.115
60.16,140.03,-0.115
60.18,139.91,-0.115
60.19,139.80,-0.115
60.20,139.68,-0.115
60.21,139.56,-0.115
60.22,139.45,-0.115
60.23,139.33,-0.115
60.24,139.21,-0.115
60.26,139.10,-0.115
60.27,138.98,-0.115
60.28,138.87,-0.115
60.29,138.75,-0.115
60.30,138.63,-0.115
60.31,138.51,-0.115
60.33,138.40,-0.115
60.34,138.28,-0.115
60.35,138.16,-0.115
60.36,138.05,-0.115
60.37,137.93,-0.115
60.39,137.81,-0.115
60.40,137.70,-0.115
60.41,137.58,-0.115
60.42,137.47,-0.115
60.43,137.35,-0.115
60.44,137.23,-0.115
60.46,137.12,-0.115
60.47,137.00,-0.115
60.48,136.88,-0.115
60.49,136.77,-0.115
60.50,136.65,-0.115
60.51,136.53,-0.115
60.53,136.42,-0.115
60.54,136.30,-0.115
60.55,136.18,-0.115
60.56,136.07,-0.115
60.57,135.95,-0.115
60.58,135.83,-0.115
60.59,135.72,-0.115
60.61,135.60,-0.115
60.62,135.48,-0.115
60.63,135.37,-0.115
60.64,135.25,-0.115
60.65,135.13,-0.115
60.66,135.02,-0.114
60.68,134.90,-0.115
60.69,134.78,-0.114
60.70,134.67,-0.114
60.71,134.55,-0.114
60.72,134.43,-0.114
60.74,134.32,-0.114
60.75,134.20,-0.114
60.76,134.08,-0.114
60.77,133.97,-0.114
60.78,133.85,-0.114
60.79,133.73,-0.114
60.81,133.62,-0.114
60.82,133.50,-0.114
60.83,133.38,-0.114
60.84,133.27,-0.114
60.85,133.15,-0.114
60.86,133.03,-0.114
60.88,132.92,-0.114
60.89,132.80,-0.114
60.90,132.68,-0.114
60.91,132.57,-0.114
60.92,132.45,-0.114
60.93,132.34,-0.114
60.94,132.22,-0.114
60.96,132.10,-0.114
60.97,131.99,-0.114
60.98,131.87,-0.114
60.99,131.75,-0.114
61.00,131.64,-0.114
61.01,131.52,-0.114
61.03,131.40,-0.114
61.04,131.29,-0.114
61.05,131.17,-0.114
61.06,131.05,-0.114
61.07,130.94,-0.114
61.09,130.82,-0.114
61.10,130.70,-0.114
61.11,130.59,-0.114
61.12,130.47,-0.114
61.13,130.35,-0.114
61.14,130.24,-0.114
61.16,130.12,-0.114
61.17,130.00,-0.114
61.18,129.89,-0.114
61.19,129.77,-0.114
61.20,129.66,-0.114
61.21,129.54,-0.114
61.23,129.42,-0.114
61.24,129.31,-0.114
61.25,129.19,-0.114
61.26,129.07,-0.114
61.27,128.96,-0.114
61.28,128.84,-0.114
61.29,128.72,-0.114
61.31,128.61,-0.114
61.32,128.49,-0.114
61.33,128.37,-0.114
61.34,128.26,-0.114
61.35,128.14,-0.114
61.36,128.02,-0.114
61.38,127.91,-0.114
61.39,127.79,-0.114
61.40,127.67,-0.114
61.41,127.56,-0.114
61.42,127.44,-0.114
61.44,127.32,-0.114
61.45,127.21,-0.114
61.46,127.09,-0.114
61.47,126.97,-0.114
61.48,126.86,-0.114
61.49,126.74,-0.114
61.51,126.63,-0.114
61.52,126.51,-0.114
61.53,126.39,-0.114
61.54,126.28,-0.114
61.55,126.16,-0.114
61.56,126.04,-0.114
61.58,125.92,-0.114
61.59,125.81,-0.114
61.60,125.69,-0.114
61.61,125.58,-0.114
61.62,125.46,-0.114
61.63,125.34,-0.114
61.64,125.23,-0.114
61.66,125.11,-0.114
61.67,124.99,-0.114
61.68,124.88,-0.114
61.69,124.76,-0.114
61.70,124.64,-0.114
61.71,124.53,-0.114
61.73,124.41,-0.114
61.74,124.29,-0.114
61.75,124.18,-0.114
61.76,124.06,-0.114
61.77,123.94,-0.114
61.79,123.83,-0.114
61.80,123.71,-0.114
61.81,123.59,-0.114
61.82,123.48,-0.114
61.83,123.36,-0.114
61.84,123.24,-0.114
61.86,123.13,-0.114
61.87,123.01,-0.114
61.88,122.90,-0.114
61.89,122.78,-0.114
61.90,122.66,-0.114
61.91,122.55,-0.114
61.93,122.43,-0.114
61.94,122.31,-0.114
61.95,122.20,-0.114
61.96,122.08,-0.114
61.97,121.96,-0.114
61.98,121.85,-0.114
61.99,121.73,-0.114
62.01,121.61,-0.114
62.02,121.50,-0.114
62.03,121.38,-0.114
62.04,121.26,-0.114
62.05,121.15,-0.114
62.06,121.03,-0.114
62.08,120.91,-0.114
62.09,120.80,-0.114
62.10,120.68,-0.114
62.11,120.57,-0.114
62.12,120.45,-0.114
62.14,120.33,-0.114
62.15,120.22,-0.114
62.16,120.10,-0.114
62.17,119.98,-0.114
62.18,119.87,-0.114
62.19,119.75,-0.114
62.21,119.63,-0.114
62.22,119.52,-0.114
62.23,119.40,-0.114
62.24,119.28,-0.114
62.25,119.17,-0.114
62.26,119.05,-0.114
62.28,118.93,-0.114
62.29,118.82,-0.114
62.30,118.70,-0.114
62.31,118.58,-0.114
62.32,118.47,-0.114
62.33,118.35,-0.114
62.34,118.23,-0.114
62.36,118.12,-0.114
62.37,118.00,-0.114
62.38,117.88,-0.114
62.39,117.77,-0.114
62.40,117.65,-0.114
62.41,117.53,-0.114
62.43,117.42,-0.114
62.44,117.30,-0.114
62.45,117.18,-0.113
62.46,117.07,-0.113
62.47,116.95,-0.113
62.49,116.83,-0.113
62.50,116.72,-0.113
62.51,116.60,-0.113
62.52,116.49,-0.113
62.53,116.37,-0.113
62.54,116.25,-0.113
62.56,116.13,-0.113
62.57,116.02,-0.113
62.58,115.90,-0.113
62.59,115.78,-0.113
62.60,115.67,-0.113
62.61,115.55,-0.113
62.63,115.44,-0.113
62.64,115.32,-0.113
62.65,115.20,-0.113
62.66,115.09,-0.113
62.67,114.97,-0.113
62.68,114.85,-0.113
62.69,114.74,-0.113
62.71,114.62,-0.113
62.72,114.50,-0.113
62.73,114.39,-0.113
62.74,114.27,-0.113
62.75,114.15,-0.113
62.76,114.04,-0.113
62.78,113.92,-0.113
62.79,113.80,-0.113
62.80,113.69,-0.113
62.81,113.57,-0.113
62.82,113.45,-0.113
62.84,113.34,-0.113
62.85,113.22,-0.113
62.86,113.10,-0.113
62.87,112.99,-0.113
62.88,112.87,-0.113
62.89,112.75,-0.113
62.91,112.64,-0.113
62.92,112.52,-0.113
62.93,112.41,-0.113
62.94,112.29,-0.113
62.95,112.17,-0.113
62.96,112.05,-0.113
62.98,111.94,-0.113
62.99,111.82,-0.113
63.00,111.71,-0.113
63.01,111.59,-0.113
63.02,111.47,-0.113
63.03,111.36,-0.113
63.04,111.24,-0.113
63.06,111.12,-0.113
63.07,111.01,-0.113
63.08,110.89,-0.113
63.09,110.77,-0.113
63.10,110.66,-0.113
63.11,110.54,-0.113
63.13,110.42,-0.113
63.14,110.31,-0.113
63.15,110.19,-0.113
63.16,110.07,-0.113
63.17,109.96,-0.113
63.19,109.84,-0.113
63.20,109.72,-0.113
63.21,109.61,-0.113
63.22,109.49,-0.113
63.23,109.37,-0.113
63.24,109.26,-0.113
63.26,109.14,-0.113
63.27,109.02,-0.113
63.28,108.91,-0.113
63.29,108.79,-0.113
63.30,108.67,-0.113
63.31,108.56,-0.113
63.33,108.44,-0.113
63.34,108.32,-0.113
63.35,108.21,-0.113
63.36,108.09,-0.113
63.37,107.98,-0.113
63.38,107.86,-0.113
63.39,107.74,-0.113
63.41,107.62,-0.113
63.42,107.51,-0.113
63.43,107.39,-0.113
63.44,107.27,-0.113
63.45,107.16,-0.113
63.46,107.04,-0.113
63.48,106.92,-0.113
63.49,106.81,-0.113
63.50,106.69,-0.113
63.51,106.57,-0.113
63.52,106.46,-0.113
63.54,106.34,-0.113
63.55,106.22,-0.113
63.56,106.11,-0.113
63.57,105.99,-0.113
63.58,105.88,-0.113
63.59,105.76,-0.113
63.61,105.64,-0.113
63.62,105.53,-0.113
63.63,105.41,-0.113
63.64,105.29,-0.113
63.65,105.18,-0.113
63.66,105.06,-0.113
63.68,104.94,-0.113
63.69,104.83,-0.113
63.70,104.71,-0.113
63.71,104.59,-0.113
63.72,104.48,-0.113
63.73,104.36,-0.113
63.74,104.25,-0.113
63.76,104.13,-0.113
63.77,104.01,-0.113
63.78,103.90,-0.113
63.79,103.78,-0.113
63.80,103.66,-0.113
63.81,103.55,-0.113
63.83,103.43,-0.113
63.84,103.31,-0.112
63.85,103.20,-0.113
63.86,103.08,-0.112
63.87,102.96,-0.112
63.89,102.85,-0.112
63.90,102.73,-0.112
63.91,102.61,-0.112
63.92,102.50,-0.112
63.93,102.38,-0.112
63.94,102.26,-0.112
63.96,102.15,-0.112
63.97,102.03,-0.112
63.98,101.91,-0.112
63.99,101.80,-0.112
64.00,101.68,-0.112
64.01,101.56,-0.112
64.03,101.45,-0.112
64.04,101.33,-0.112
64.05,101.22,-0.112
64.06,101.10,-0.112
64.07,100.98,-0.112
64.08,100.86,-0.112
64.09,100.75,-0.112
64.11,100.63,-0.112
64.12,100.52,-0.112
64.13,100.40,-0.112
64.14,100.28,-0.112
64.15,100.17,-0.112
64.16,100.05,-0.112
64.18,99.93,-0.112
64.19,99.81,-0.112
64.20,99.70,-0.112
64.21,99.58,-0.112
64.22,99.47,-0.112
64.24,99.35,-0.112
64.25,99.23,-0.112
64.26,99.12,-0.112
64.27,99.00,-0.112
64.28,98.88,-0.112
64.29,98.77,-0.112
64.31,98.65,-0.112
64.32,98.53,-0.112
64.33,98.42,-0.112
64.34,98.30,-0.112
64.35,98.18,-0.112
64.36,98.07,-0.112
64.38,97.95,-0.112
64.39,97.83,-0.112
64.40,97.72,-0.112
64.41,97.60,-0.112
64.42,97.48,-0.112
64.43,97.37,-0.112
64.44,97.25,-0.112
64.46,97.13,-0.112
64.47,97.02,-0.112
64.48,96.90,-0.112
64.49,96.78,-0.112
64.50,96.67,-0.112
64.51,96.55,-0.112
64.53,96.43,-0.112
64.54,96.32,-0.112
64.55,96.20,-0.112
64.56,96.08,-0.112
64.57,95.97,-0.112
64.59,95.85,-0.112
64.60,95.73,-0.112
64.61,95.62,-0.112
64.62,95.50,-0.112
64.63,95.39,-0.112
64.64,95.27,-0.112
64.66,95.15,-0.112
64.67,95.04,-0.112
64.68,94.92,-0.112
64.69,94.80,-0.112
64.70,94.69,-0.112
64.71,94.57,-0.112
64.73,94.45,-0.112
64.74,94.34,-0.112
64.75,94.22,-0.112
64.76,94.10,-0.112
64.77,93.99,-0.112
64.78,93.87,-0.112
64.79,93.75,-0.112
64.81,93.64,-0.112
64.82,93.52,-0.112
64.83,93.40,-0.112
64.84,93.29,-0.112
64.85,93.17,-0.112
64.86,93.06,-0.112
64.88,92.94,-0.111
64.89,92.82,-0.112
64.90,92.70,-0.111
64.91,92.59,-0.111
64.92,92.47,-0.111
64.94,92.36,-0.111
64.95,92.24,-0.111
64.96,92.12,-0.111
64.97,92.01,-0.111
64.98,91.89,-0.111
64.99,91.77,-0.111
65.01,91.66,-0.111
65.02,91.54,-0.111
65.03,91.42,-0.111
65.04,91.31,-0.111
65.05,91.19,-0.111
65.06,91.07,-0.111
65.08,90.96,-0.111
65.09,90.84,-0.111
65.10,90.72,-0.111
65.11,90.61,-0.111
65.12,90.49,-0.111
65.13,90.37,-0.111
65.14,90.26,-0.111
65.16,90.14,-0.111
65.17,90.03,-0.111
65.18,89.91,-0.111
65.19,89.79,-0.111
65.20,89.68,-0.111
65.21,89.56,-0.111
65.23,89.44,-0.111
65.24,89.32,-0.111
65.25,89.21,-0.111
65.26,89.09,-0.111
65.27,88.98,-0.111
65.29,88.86,-0.111
65.30,88.74,-0.111
65.31,88.63,-0.111
65.32,88.51,-0.111
65.33,88.39,-0.111
65.34,88.28,-0.111
65.36,88.16,-0.111
65.37,88.04,-0.111
65.38,87.93,-0.111
65.39,87.81,-0.111
65.40,87.69,-0.111
65.41,87.58,-0.111
65.43,87.46,-0.111
65.44,87.34,-0.111
65.45,87.23,-0.111
65.46,87.11,-0.111
65.47,86.99,-0.111
65.48,86.88,-0.111
65.49,86.76,-0.111
65.51,86.64,-0.111
65.52,86.53,-0.111
65.53,86.41,-0.111
65.54,86.29,-0.111
65.55,86.18,-0.111
65.56,86.06,-0.111
65.58,85.94,-0.111
65.59,85.83,-0.111
65.60,85.71,-0.110
65.61,85.59,-0.111
65.62,85.48,-0.111
65.64,85.36,-0.110
65.65,85.24,-0.110
65.66,85.13,-0.110
65.67,85.01,-0.110
65.68,84.90,-0.110
65.69,84.78,-0.110
65.71,84.66,-0.110
65.72,84.55,-0.110
65.73,84.43,-0.110
65.74,84.31,-0.110
65.75,84.20,-0.110
65.76,84.08,-0.110
65.78,83.96,-0.110
65.79,83.85,-0.110
65.80,83.73,-0.110
65.81,83.61,-0.110
65.82,83.50,-0.110
65.83,83.38,-0.110
65.84,83.26,-0.110
65.86,83.15,-0.110
65.87,83.03,-0.110
65.88,82.91,-0.110
65.89,82.80,-0.110
65.90,82.68,-0.110
65.91,82.56,-0.110
65.93,82.45,-0.110
65.94,82.33,-0.110
65.95,82.21,-0.110
65.96,82.10,-0.110
65.97,81.98,-0.110
65.99,81.87,-0.110
66.00,81.75,-0.110
66.01,81.63,-0.110
66.02,81.51,-0.110
66.03,81.40,-0.110
66.04,81.28,-0.110
66.06,81.16,-0.110
66.07,81.05,-0.110
66.08,80.93,-0.110
66.09,80.81,-0.110
66.10,80.70,-0.110
66.11,80.58,-0.110
66.13,80.47,-0.110
66.14,80.35,-0.110
66.15,80.23,-0.110
66.16,80.12,-0.110
66.17,80.00,-0.110
66.18,79.88,-0.110
66.19,79.77,-0.110
66.21,79.65,-0.110
66.22,79.53,-0.110
66.23,79.42,-0.110
66.24,79.30,-0.110
66.25,79.18,-0.110
66.26,79.07,-0.110
66.28,78.95,-0.110
66.29,78.83,-0.110
66.30,78.72,-0.110
66.31,78.60,-0.110
66.32,78.48,-0.110
66.34,78.37,-0.110
66.35,78.25,-0.110
66.36,78.13,-0.110
66.37,78.02,-0.110
66.38,77.90,-0.110
66.39,77.79,-0.110
66.41,77.67,-0.110
66.42,77.55,-0.110
66.43,77.44,-0.110
66.44,77.32,-0.110
66.45,77.20,-0.110
66.46,77.08,-0.110
66.48,76.97,-0.110
66.49,76.85,-0.110
66.50,76.74,-0.110
66.51,76.62,-0.110
66.52,76.50,-0.110
66.53,76.39,-0.110
66.54,76.27,-0.110
66.56,76.15,-0.110
66.57,76.04,-0.110
66.58,75.92,-0.110
66.59,75.80,-0.110
66.60,75.69,-0.110
66.61,75.57,-0.110
66.63,75.45,-0.110
66.64,75.34,-0.110
66.65,75.22,-0.110
66.66,75.10,-0.110
66.67,74.99,-0.110
66.69,74.87,-0.110
66.70,74.75,-0.110
66.71,74.64,-0.110
66.72,74.52,-0.110
66.73,74.40,-0.110
66.74,74.29,-0.110
66.76,74.17,-0.110
66.77,74.06,-0.110
66.78,73.94,-0.110
66.79,73.82,-0.110
66.80,73.70,-0.110
66.81,73.59,-0.110
66.83,73.47,-0.110
66.84,73.36,-0.110
66.85,73.24,-0.110
66.86,73.12,-0.110
66.87,73.01,-0.110
66.88,72.89,-0.110
66.89,72.77,-0.110
66.91,72.66,-0.110
66.92,72.54,-0.110
66.93,72.42,-0.110
66.94,72.31,-0.110
66.95,72.19,-0.110
66.96,72.07,-0.110
66.98,71.96,-0.110
66.99,71.84,-0.110
67.00,71.72,-0.110
67.01,71.61,-0.110
67.02,71.49,-0.110
67.04,71.37,-0.110
67.05,71.26,-0.110
67.06,71.14,-0.110
67.07,71.02,-0.110
67.08,70.91,-0.110
67.09,70.79,-0.110
67.11,70.67,-0.110
67.12,70.56,-0.110
67.13,70.44,-0.110
67.14,70.32,-0.110
67.15,70.21,-0.110
67.16,70.09,-0.110
67.18,69.98,-0.110
67.19,69.86,-0.110
67.20,69.74,-0.110
67.21,69.63,-0.110
67.22,69.51,-0.110
67.23,69.39,-0.110
67.24,69.28,-0.110
67.26,69.16,-0.110
67.27,69.04,-0.110
67.28,68.93,-0.110
67.29,68.81,-0.110
67.30,68.69,-0.110
67.31,68.58,-0.110
67.33,68.46,-0.110
67.34,68.34,-0.110
67.35,68.23,-0.110
67.36,68.11,-0.110
67.37,67.99,-0.110
67.39,67.88,-0.110
67.40,67.76,-0.110
67.41,67.64,-0.110
67.42,67.53,-0.110
67.43,67.41,-0.110
67.44,67.29,-0.110
67.46,67.18,-0.109
67.47,67.06,-0.109
67.48,66.94,-0.110
67.49,66.83,-0.109
67.50,66.71,-0.109
67.51,66.59,-0.109
67.53,66.48,-0.109
67.54,66.36,-0.109
67.55,66.25,-0.109
67.56,66.13,-0.109
67.57,66.01,-0.109
67.58,65.90,-0.109
67.59,65.78,-0.109
67.61,65.66,-0.109
67.62,65.55,-0.109
67.63,65.43,-0.109
67.64,65.31,-0.109
67.65,65.20,-0.109
67.66,65.08,-0.109
67.68,64.96,-0.109
67.69,64.85,-0.109
67.70,64.73,-0.109
67.71,64.61,-0.109
67.72,64.50,-0.109
67.74,64.38,-0.109
67.75,64.26,-0.109
67.76,64.15,-0.109
67.77,64.03,-0.109
67.78,63.91,-0.109
67.79,63.80,-0.109
67.81,63.68,-0.109
67.82,63.57,-0.109
67.83,63.45,-0.109
67.84,63.33,-0.109
67.85,63.21,-0.109
67.86,63.10,-0.109
67.88,62.98,-0.109
67.89,62.86,-0.109
67.90,62.75,-0.109
67.91,62.63,-0.109
67.92,62.52,-0.109
67.93,62.40,-0.109
67.94,62.28,-0.109
67.96,62.16,-0.109
67.97,62.05,-0.109
67.98,61.93,-0.109
67.99,61.81,-0.109
68.00,61.70,-0.109
68.01,61.58,-0.109
68.03,61.47,-0.109
68.04,61.35,-0.109
68.05,61.23,-0.109
68.06,61.12,-0.109
68.07,61.00,-0.109
68.09,60.88,-0.109
68.10,60.77,-0.109
68.11,60.65,-0.109
68.12,60.53,-0.109
68.13,60.42,-0.109
68.14,60.30,-0.109
68.16,60.18,-0.109
68.17,60.07,-0.109
68.18,59.95,-0.109
68.19,59.83,-0.109
68.20,59.72,-0.109
68.21,59.60,-0.109
68.23,59.48,-0.109
68.24,59.37,-0.109
68.25,59.25,-0.109
68.26,59.13,-0.109
68.27,59.02,-0.109
68.28,58.90,-0.109
68.30,58.78,-0.109
68.31,58.67,-0.109
68.32,58.55,-0.109
68.33,58.44,-0.109
68.34,58.32,-0.109
68.35,58.20,-0.109
68.36,58.09,-0.109
68.38,57.97,-0.109
68.39,57.85,-0.109
68.40,57.74,-0.109
68.41,57.62,-0.109
68.42,57.50,-0.109
68.44,57.39,-0.109
68.45,57.27,-0.109
68.46,57.15,-0.109
68.47,57.04,-0.109
68.48,56.92,-0.109
68.49,56.80,-0.109
68.50,56.69,-0.109
68.52,56.57,-0.109
68.53,56.46,-0.109
68.54,56.34,-0.109
68.55,56.22,-0.109
68.56,56.11,-0.109
68.58,55.99,-0.109
68.59,55.87,-0.109
68.60,55.76,-0.109
68.61,55.64,-0.109
68.62,55.52,-0.109
68.63,55.40,-0.108
68.65,55.29,-0.108
68.66,55.17,-0.108
68.67,55.06,-0.108
68.68,54.94,-0.108
68.69,54.82,-0.108
68.70,54.71,-0.108
68.71,54.59,-0.108
68.73,54.47,-0.108
68.74,54.36,-0.108
68.75,54.24,-0.108
68.76,54.12,-0.108
68.77,54.01,-0.108
68.79,53.89,-0.108
68.80,53.77,-0.108
68.81,53.66,-0.108
68.82,53.54,-0.108
68.83,53.42,-0.108
68.84,53.31,-0.108
68.85,53.19,-0.108
68.87,53.07,-0.108
68.88,52.96,-0.108
68.89,52.84,-0.108
68.90,52.72,-0.108
68.91,52.61,-0.108
68.93,52.49,-0.108
68.94,52.37,-0.108
68.95,52.26,-0.108
68.96,52.14,-0.108
68.97,52.02,-0.108
68.98,51.91,-0.108
69.00,51.79,-0.108
69.01,51.67,-0.108
69.02,51.56,-0.108
69.03,51.44,-0.108
69.04,51.32,-0.108
69.05,51.21,-0.108
69.06,51.09,-0.108
69.08,50.97,-0.108
69.09,50.86,-0.108
69.10,50.74,-0.108
69.11,50.62,-0.108
69.12,50.51,-0.108
69.14,50.39,-0.108
69.15,50.27,-0.108
69.16,50.16,-0.108
69.17,50.04,-0.108
69.18,49.93,-0.108
69.19,49.81,-0.108
69.20,49.69,-0.108
69.22,49.58,-0.108
69.23,49.46,-0.108
69.24,49.34,-0.108
69.25,49.23,-0.108
69.26,49.11,-0.108
69.28,48.99,-0.108
69.29,48.88,-0.108
69.30,48.76,-0.108
69.31,48.64,-0.108
69.32,48.53,-0.108
69.33,48.41,-0.108
69.35,48.30,-0.108
69.36,48.18,-0.108
69.37,48.06,-0.108
69.38,47.95,-0.108
69.39,47.83,-0.108
69.40,47.71,-0.108
69.41,47.60,-0.108
69.43,47.48,-0.108
69.44,47.36,-0.108
69.45,47.25,-0.108
69.46,47.13,-0.107
69.47,47.01,-0.107
69.49,46.90,-0.108
69.50,46.78,-0.107
69.51,46.66,-0.107
69.52,46.55,-0.107
69.53,46.43,-0.107
69.54,46.31,-0.107
69.55,46.20,-0.107
69.57,46.08,-0.107
69.58,45.97,-0.107
69.59,45.85,-0.107
69.60,45.73,-0.107
69.61,45.61,-0.107
69.63,45.50,-0.107
69.64,45.38,-0.107
69.65,45.26,-0.107
69.66,45.15,-0.107
69.67,45.03,-0.107
69.68,44.91,-0.107
69.70,44.80,-0.107
69.71,44.68,-0.107
69.72,44.57,-0.107
69.73,44.45,-0.107
69.74,44.33,-0.107
69.75,44.21,-0.107
69.76,44.10,-0.107
69.78,43.98,-0.107
69.79,43.86,-0.107
69.80,43.75,-0.107
69.81,43.63,-0.107
69.82,43.51,-0.107
69.84,43.40,-0.107
69.85,43.28,-0.107
69.86,43.17,-0.107
69.87,43.05,-0.107
69.88,42.93,-0.107
69.89,42.82,-0.107
69.90,42.70,-0.107
69.92,42.58,-0.107
69.93,42.47,-0.107
69.94,42.35,-0.107
69.95,42.23,-0.107
69.96,42.12,-0.107
69.98,42.00,-0.107
69.99,41.88,-0.107
70.00,41.77,-0.107
70.01,41.65,-0.107
70.02,41.53,-0.107
70.03,41.42,-0.107
70.05,41.30,-0.107
70.06,41.18,-0.107
70.07,41.07,-0.107
70.08,40.95,-0.107
70.09,40.84,-0.107
70.10,40.72,-0.107
70.11,40.60,-0.107
70.13,40.49,-0.107
70.14,40.37,-0.107
70.15,40.25,-0.107
70.16,40.14,-0.107
70.17,40.02,-0.107
70.19,39.90,-0.106
70.20,39.79,-0.106
70.21,39.67,-0.106
70.22,39.55,-0.106
70.23,39.44,-0.106
70.24,39.32,-0.106
70.25,39.20,-0.106
70.27,39.09,-0.106
70.28,38.97,-0.106
70.29,38.85,-0.106
70.30,38.74,-0.106
70.31,38.62,-0.106
70.33,38.50,-0.106
70.34,38.39,-0.106
70.35,38.27,-0.106
70.36,38.15,-0.106
70.37,38.04,-0.106
70.38,37.92,-0.106
70.40,37.80,-0.106
70.41,37.69,-0.106
70.42,37.57,-0.106
70.43,37.46,-0.106
70.44,37.34,-0.106
70.45,37.22,-0.106
70.46,37.10,-0.106
70.48,36.99,-0.106
70.49,36.87,-0.106
70.50,36.76,-0.106
70.51,36.64,-0.106
70.52,36.52,-0.106
70.54,36.41,-0.106
70.55,36.29,-0.106
70.56,36.17,-0.106
70.57,36.06,-0.106
70.58,35.94,-0.106
70.59,35.82,-0.106
70.60,35.71,-0.106
70.62,35.59,-0.106
70.63,35.47,-0.106
70.64,35.36,-0.106
70.65,35.24,-0.106
70.66,35.12,-0.106
70.68,35.01,-0.106
70.69,34.89,-0.106
70.70,34.78,-0.106
70.71,34.66,-0.106
70.72,34.54,-0.106
70.73,34.43,-0.106
70.75,34.31,-0.106
70.76,34.19,-0.106
70.77,34.08,-0.106
70.78,33.96,-0.106
70.79,33.84,-0.106
70.80,33.73,-0.106
70.81,33.61,-0.106
70.83,33.49,-0.106
70.84,33.38,-0.106
70.85,33.26,-0.106
70.86,33.14,-0.106
70.87,33.03,-0.106
70.89,32.91,-0.106
70.90,32.79,-0.106
70.91,32.68,-0.106
70.92,32.56,-0.106
70.93,32.44,-0.106
70.94,32.33,-0.105